#timestamp [ns],w_RS_S_x [rad s^-1],w_RS_S_y [rad s^-1],w_RS_S_z [rad s^-1],a_RS_S_x [m s^-2],a_RS_S_y [m s^-2],a_RS_S_z [m s^-2]
1548685904964781323,-0.0492774074,-0.0299630320,-0.0031958524,9.6633845113,0.6354784068,0.9525760591
1548685904969760323,-0.0500128448,-0.0247798017,-0.0026565144,9.6071729478,0.6306026369,0.9908571684
1548685904974739323,-0.0485551412,-0.0175836664,0.0005467393,9.5760771893,0.6245560097,0.9443905777
1548685904979718323,-0.0478074818,-0.0101198530,0.0069777367,9.5988010128,0.6245839065,0.9651822213
1548685904984697323,-0.0456186107,-0.0060888941,0.0096401032,9.6298967714,0.6270254621,1.0046159328
1548685904989676323,-0.0468347984,-0.0014872557,0.0107210745,9.6442486599,0.6246397001,0.9727687940
1548685904994655323,-0.0446410022,-0.0012011984,0.0128493893,9.6789323906,0.6354974941,1.0098068387
1548685904999635323,-0.0448823149,-0.0003402771,0.0133877850,9.6693644649,0.6186620807,1.0345598878
1548685905004613323,-0.0424583325,-0.0006166529,0.0130982324,9.6502286135,0.6186385887,1.0477160483
1548685905009592323,-0.0375841271,-0.0043595654,0.0160115980,9.6358767249,0.5885787066,1.0725376986
1548685905014571323,-0.0375528601,-0.0049652802,0.0213813275,9.6490326228,0.6018134531,1.0629765694
1548685905019550323,-0.0336471927,-0.0058367249,0.0256433256,9.6550125763,0.5910055796,1.0640701242
1548685905024529323,-0.0302189886,-0.0067175439,0.0312519074,9.6861083349,0.6054640405,1.1011561553
1548685905029508323,-0.0282516283,-0.0104759226,0.0347277733,9.6885003163,0.5730213328,1.0847196559
1548685905034487323,-0.0272644973,-0.0122146062,0.0371367564,9.6741484277,0.5838189285,1.0966355307
1548685905039466323,-0.0265333297,-0.0153797825,0.0365958692,9.6801283813,0.5465738635,1.0719452492
1548685905044445323,-0.0265365716,-0.0173905544,0.0352550966,9.6538165856,0.5309195852,1.0535511201
1548685905049424323,-0.0258159658,-0.0191069818,0.0333707812,9.6394646971,0.5056664651,1.0303072182
1548685905054403323,-0.0265621116,-0.0173657956,0.0306912027,9.5689012450,0.4875544804,1.0289291393
1548685905059383323,-0.0319044385,-0.0145044197,0.0304674065,9.5473734121,0.4851246708,1.1241795574
1548685905064362323,-0.0343342384,-0.0107699793,0.0310227678,9.5246495886,0.4634663446,1.1444239741
1548685905069340323,-0.0386983016,-0.0047477553,0.0334726568,9.4528901458,0.4285292243,1.1219651008
1548685905074319323,-0.0425741479,0.0032873328,0.0372590564,9.4493021737,0.4080960806,1.1747727685
1548685905079299323,-0.0457282025,0.0196744170,0.0431803600,9.4433222201,0.3960718341,1.2123709810
1548685905084277323,-0.0524937580,0.0273897250,0.0504825890,9.4851818951,0.3853080082,1.2164923341
1548685905089256323,-0.0573569726,0.0351498120,0.0510561616,9.5222576072,0.3817484524,1.2663967726
1548685905094235323,-0.0636767500,0.0472207415,0.0529815221,9.5318255329,0.3793568174,1.3295711878
1548685905099215323,-0.0677887016,0.0529469798,0.0570402875,9.5760771893,0.3481671891,1.3254590655
1548685905104193323,-0.0726557680,0.0589845883,0.0562728662,9.6203288457,0.3301961565,1.3471341667
1548685905109173323,-0.0775076752,0.0606919701,0.0565826220,9.6298967714,0.3181909973,1.3153547052
1548685905114151323,-0.0806680891,0.0595353917,0.0547319593,9.6334847435,0.3458342841,1.3575015302
1548685905119131323,-0.0838192064,0.0589452053,0.0547601045,9.6322887528,0.3314125296,1.3868290413
1548685905124110323,-0.0877040780,0.0577825758,0.0534527634,9.6466406413,0.2857659087,1.3983681067
1548685905129089323,-0.0918485277,0.0554846597,0.0486584019,9.6837163535,0.2930215676,1.3896547490
1548685905134068323,-0.0928210192,0.0503043014,0.0462547302,9.6765404092,0.3146431875,1.3686456177
1548685905139047323,-0.0950071680,0.0456952993,0.0438612707,9.6418566785,0.3146006082,1.3796691220
1548685905144026323,-0.0979187574,0.0436705177,0.0428145340,9.6873043256,0.3134547113,1.4200804166
1548685905149005323,-0.0996148142,0.0387709452,0.0412224269,9.7124201306,0.3194939972,1.4044965982
1548685905153984323,-0.1032480485,0.0332849606,0.0399162745,9.6932842792,0.3206721957,1.3414529184
1548685905158963323,-0.1068764030,0.0254926287,0.0386118926,9.7040481956,0.3050634331,1.3753069051
1548685905163942323,-0.1073518555,0.0188641572,0.0378158516,9.7303599913,0.3087008062,1.3679135026
1548685905168921323,-0.1092657973,0.0150904971,0.0410573485,9.7112241399,0.3002654805,1.3318351978
1548685905173900323,-0.1145865376,0.0098752883,0.0416451419,9.6729524370,0.3002184965,1.3440799129
1548685905178879323,-0.1199148349,0.0061059157,0.0414264358,9.6179368642,0.2881340517,1.3506944530
1548685905183858323,-0.1228013022,0.0077969076,0.0462830378,9.6239168178,0.3061667508,1.2919932919
1548685905188837323,-0.1274037750,0.0083477926,0.0473969409,9.5844491243,0.3385639426,1.2538370746
1548685905193815323,-0.1315302417,0.0074709540,0.0463599738,9.6059769571,0.3590191101,1.2746397866
1548685905198795323,-0.1363779243,0.0085988361,0.0472071009,9.5904290778,0.3938490480,1.2654643971
1548685905203774323,-0.1419281393,0.0099871144,0.0526242934,9.5736852078,0.3553743957,1.2785978048
1548685905208753323,-0.1445989695,0.0151576066,0.0539860722,9.5569413379,0.3193031245,1.3046259021
1548685905213732323,-0.1501983783,0.0234984241,0.0532232734,9.5102977000,0.3396746016,1.2665705849
1548685905218711323,-0.1535912715,0.0289482457,0.0556650811,9.5318255329,0.3324908869,1.2721404731
1548685905223691323,-0.1581921404,0.0358270218,0.0594587589,9.5043177465,0.3240452835,1.3123758247
1548685905228669323,-0.1649804232,0.0401119369,0.0613943566,9.5126896815,0.2964166792,1.3075795813
1548685905233648323,-0.1708134521,0.0435521766,0.0603689867,9.5605293100,0.3048872429,1.2963745836
1548685905238628323,-0.1763868576,0.0466891487,0.0622948148,9.5964090314,0.2977211473,1.3134718355
1548685905243607323,-0.1826799314,0.0503908308,0.0658373794,9.6119569107,0.3133622114,1.2968436806
1548685905248585323,-0.1899470442,0.0503521653,0.0672436301,9.6334847435,0.2857497579,1.3164864098
1548685905253564323,-0.1940597073,0.0500373495,0.0688908638,9.7052441863,0.3086699730,1.2709549336
1548685905258543323,-0.1998790341,0.0477102645,0.0681383844,9.7626517405,0.3255641164,1.2701680573
1548685905263523323,-0.2057169088,0.0428118413,0.0630924671,9.8487630719,0.3328799736,1.2760261649
1548685905268502323,-0.2118037547,0.0338908282,0.0553671357,9.8511550533,0.3845556027,1.2501897057
1548685905273481323,-0.2159491984,0.0249767276,0.0478932209,9.8212552855,0.3929307301,1.2177707222
1548685905278459323,-0.2188978381,0.0163707150,0.0377237865,9.7805916012,0.4024943337,1.2464577876
1548685905283439323,-0.2196520265,0.0063239120,0.0291470660,9.7267720191,0.4084367150,1.2507068042
1548685905288418323,-0.2184506251,0.0037505222,0.0261852952,9.7315559820,0.4324763985,1.2189833182
1548685905293397323,-0.2187025559,-0.0017077091,0.0224331301,9.7148121120,0.4360609146,1.1852139281
1548685905298376323,-0.2162882991,-0.0080164007,0.0181212597,9.6920882884,0.4696803525,1.1878596722
1548685905303355323,-0.2150608945,-0.0157936358,0.0178481159,9.6717564463,0.5369500616,1.1506059701
1548685905308334323,-0.2111821338,-0.0209545282,0.0156702893,9.6287007806,0.5537208718,1.1476716813
1548685905313313323,-0.2053464731,-0.0220957026,0.0180362105,9.5964090314,0.5717065869,1.1211443436
1548685905318292323,-0.1960962198,-0.0212274799,0.0246661787,9.5952130407,0.6293862638,1.0836322500
1548685905323271323,-0.1863561116,-0.0226635123,0.0312936554,9.6083689385,0.6402176293,1.0482811258
1548685905328250323,-0.1763793334,-0.0206404340,0.0381848098,9.6071729478,0.6378127800,1.0260243357
1548685905333229323,-0.1683363101,-0.0229472130,0.0445594029,9.5724892171,0.6257532955,1.0265002149
1548685905338208323,-0.1608075972,-0.0191859022,0.0479805026,9.5533533657,0.5908807782,1.0408376061
1548685905343187323,-0.1528021216,-0.0122498152,0.0511264415,9.5413934586,0.5716390473,1.0140426561
1548685905348166323,-0.1467295084,-0.0093567486,0.0540240622,9.5581373286,0.5464241018,0.9880302638
1548685905353144323,-0.1418975949,-0.0058661105,0.0520995368,9.5413934586,0.4923274727,0.9777216648
1548685905358124323,-0.1389991428,0.0030762567,0.0534094264,9.5425894493,0.4262359621,0.9941345050
1548685905363104323,-0.1392609237,0.0051078285,0.0507253647,9.5653132728,0.4094401916,0.9645215384
1548685905368082323,-0.1409872084,0.0059916011,0.0459072592,9.5952130407,0.3602075863,0.8820655431
1548685905373061323,-0.1470811369,0.0025437936,0.0389831159,9.6035849757,0.3710330788,0.9499420764
1548685905378040323,-0.1534172706,-0.0003299296,0.0323291253,9.5665092636,0.3012895126,0.9692221515
1548685905383019323,-0.1594968759,-0.0006268991,0.0291610486,9.4911618486,0.2927851791,1.0007312368
1548685905387997323,-0.1670164279,0.0004938449,0.0292262232,9.4421262294,0.3203638628,1.0037371962
1548685905392977323,-0.1767214735,-0.0047212608,0.0263623374,9.5186696350,0.2952223299,0.9757373313
1548685905397956323,-0.1854700903,-0.0099190745,0.0210737487,9.5581373286,0.3181029022,0.9494028560
1548685905402935323,-0.1930019999,-0.0171297114,0.0157760543,9.5007297743,0.3805203334,0.9536863097
1548685905407914323,-0.1971294153,-0.0260612888,0.0115237117,9.4971418022,0.4093565012,0.9631062335
1548685905412893323,-0.2017146729,-0.0378982822,0.0110363450,9.4373422665,0.4044763265,0.9815071447
1548685905417873323,-0.2065267734,-0.0408327230,0.0167189287,9.3380750373,0.3695054364,1.0367950834
1548685905422852323,-0.2091847488,-0.0431549468,0.0175495328,9.2962153624,0.3886810960,1.0385330772
1548685905427830323,-0.2142527112,-0.0411865330,0.0226935565,9.2974113531,0.3742622780,0.9974899517
1548685905432810323,-0.2173952776,-0.0366063711,0.0262077546,9.3009993252,0.3874852785,0.9962653535
1548685905437789323,-0.2207751241,-0.0351970265,0.0294580537,9.2950193717,0.3994948425,1.0174452003
1548685905442767323,-0.2243810226,-0.0309276398,0.0367352360,9.2926273902,0.3886766912,0.9905176672
1548685905447747323,-0.2241288094,-0.0248942780,0.0407554227,9.2734915388,0.3501991024,0.9849268738
1548685905452726323,-0.2231674444,-0.0194154315,0.0412796227,9.1993401146,0.3777469529,0.9753799000
1548685905457705323,-0.2234350880,-0.0124872409,0.0393971918,9.1909681796,0.3957620330,0.9684556020
1548685905462684323,-0.2220125485,-0.0049693151,0.0364255441,9.1885761982,0.4017675491,0.9731758712
1548685905467663323,-0.2176915228,0.0008459676,0.0307450093,9.2005361053,0.4690769010,1.0105092080
1548685905472642323,-0.2112196592,0.0067012499,0.0194075444,9.1778122818,0.5267301494,1.0178379953
1548685905477621323,-0.2006435818,0.0140303471,0.0053481032,9.1562844489,0.5831831755,1.0310122895
1548685905482600323,-0.1876535640,0.0251206327,-0.0092724534,9.0952889225,0.6095454862,1.0587999017
1548685905487579323,-0.1741976275,0.0402593131,-0.0257796207,9.0594092011,0.5566270556,1.0815762637
1548685905492557323,-0.1609711769,0.0527950247,-0.0409403436,9.1479125139,0.4990545610,1.0921075952
1548685905497537323,-0.1472605532,0.0621688830,-0.0574452156,9.1574804396,0.4209564230,1.0650342724
1548685905502516323,-0.1357049018,0.0692051329,-0.0699021733,9.1897721889,0.3236591333,1.1150279440
1548685905507495323,-0.1253369045,0.0716088936,-0.0796602918,9.1993401146,0.2864184730,1.1137347621
1548685905512474323,-0.1203401627,0.0699972240,-0.0974223612,9.2220639381,0.2299669152,1.1005441645
1548685905517453323,-0.1146148289,0.0706892144,-0.1141187366,9.2113000217,0.2323570820,1.0702104666
1548685905522432323,-0.1081420841,0.0676248776,-0.1286709130,9.1682443561,0.2491278922,1.1188573997
1548685905527411323,-0.1007059635,0.0634202900,-0.1448415142,9.1024648668,0.2250133279,1.1432062577
1548685905532390323,-0.0923226995,0.0678730585,-0.1618326715,9.0115695726,0.2261034313,1.1596849176
1548685905537369323,-0.0834607524,0.0717586144,-0.1801699699,8.9673179162,0.2741167270,1.1274514134
1548685905542348323,-0.0694754478,0.0701696307,-0.1950577771,8.9589459812,0.3462078807,1.1334085636
1548685905547327323,-0.0549889699,0.0694301426,-0.2067289379,8.9625339534,0.4026917401,1.1966494069
1548685905552306323,-0.0365998746,0.0692606769,-0.2141392073,8.8429348821,0.4217719633,1.2264100358
1548685905557286323,-0.0157510227,0.0682047514,-0.2156639066,8.6754961822,0.3747004776,1.2580120396
1548685905562264323,0.0019536700,0.0746075526,-0.2128712279,8.5726409809,0.3241032059,1.2969406848
1548685905567243323,0.0179741550,0.0910598033,-0.2038966983,8.5582890923,0.3132703722,1.3534095214
1548685905572223323,0.0303584121,0.1112354382,-0.1932822951,8.5642690459,0.3240929282,1.3416022278
1548685905577201323,0.0388851675,0.1293588045,-0.1794106752,8.6133046651,0.2760855055,1.2788141780
1548685905582180323,0.0464560589,0.1486151396,-0.1625783088,8.5965607951,0.2195854953,1.2790568993
1548685905587160323,0.0506389370,0.1710149490,-0.1433023642,8.5965607951,0.1426773018,1.3505869378
1548685905592139323,0.0543341629,0.1925521552,-0.1248268867,8.6240685815,0.0441724485,1.3385142048
1548685905597117323,0.0539103887,0.2146437950,-0.1055102325,8.6814761358,0.0202091141,1.3494608035
1548685905602097323,0.0539259089,0.2370695124,-0.0942519920,8.7460596343,-0.0169640065,1.3907927817
1548685905607076323,0.0517464129,0.2597857593,-0.0851225089,8.7986832257,-0.0361264519,1.4615906877
1548685905612054323,0.0487971966,0.2790874082,-0.0848433007,8.8453268635,-0.0156404511,1.4820510275
1548685905617034323,0.0484788682,0.3021760503,-0.0896912328,8.8752266313,-0.0997220815,1.5461415247
1548685905622013323,0.0476522838,0.3298884024,-0.0969546230,8.8548947892,-0.1838653785,1.6331904758
1548685905626991323,0.0514284999,0.3561864456,-0.1055997167,8.9924337212,-0.2197472453,1.7040074492
1548685905631971323,0.0523199317,0.3784198073,-0.1112630327,9.1538924675,-0.2832386291,1.7158904115
1548685905636950323,0.0566141634,0.3954814459,-0.1174891274,9.2842554552,-0.3311462107,1.6906796442
1548685905641929323,0.0563345462,0.4009827334,-0.1220550952,9.4337542944,-0.3646100139,1.6968564400
1548685905646908323,0.0545991570,0.4047523530,-0.1274123425,9.5150816629,-0.4294014611,1.7086597403
1548685905651887323,0.0582243037,0.3998889027,-0.1314675099,9.5999970035,-0.4965918846,1.7274485491
1548685905656866323,0.0601695918,0.3909732834,-0.1338938761,9.7076361677,-0.5577459587,1.7424091514
1548685905661845323,0.0616575574,0.3817410633,-0.1314834009,9.8033154248,-0.6525620500,1.7587137109
1548685905666823323,0.0605046270,0.3621144039,-0.1282361248,9.8774668490,-0.6945301867,1.7624028775
1548685905671803323,0.0559819375,0.3384209706,-0.1220028091,9.9073666168,-0.7521746256,1.7936621860
1548685905676782323,0.0514705100,0.3101133863,-0.1154974882,9.9061706261,-0.8711434558,1.7983981775
1548685905681761323,0.0457796969,0.2817685307,-0.1030752967,9.8379991555,-0.9289082913,1.8579572796
1548685905686740323,0.0359594688,0.2603176509,-0.0892798685,9.7136161213,-0.9699184673,1.9300013372
1548685905691720323,0.0224868708,0.2495106537,-0.0741183426,9.5844491243,-0.9736821101,1.9704489489
1548685905696698323,0.0082835343,0.2473347565,-0.0562724195,9.4959458115,-0.9221180682,1.9950881720
1548685905701677323,-0.0039857197,0.2486252929,-0.0381777356,9.4469101922,-0.8548835971,2.0168407774
1548685905706657323,-0.0160577828,0.2571533386,-0.0254600023,9.4134224523,-0.7455708704,2.0196138522
1548685905711635323,-0.0262021568,0.2622491655,-0.0162466976,9.4636540622,-0.6649959387,2.0024962687
1548685905716614323,-0.0324527015,0.2607309818,-0.0070623981,9.4803979322,-0.6902108842,2.1124707340
1548685905721593323,-0.0389585433,0.2652659137,0.0021193848,9.4134224523,-0.6830829632,2.2294396283
1548685905726572323,-0.0515678814,0.2744179716,0.0057131495,9.4469101922,-0.6433860648,2.2559358814
1548685905731551323,-0.0578985592,0.2795946180,0.0030799275,9.5378054864,-0.6108288335,2.2429655006
1548685905736530323,-0.0645230870,0.2842446054,-0.0089469731,9.6179368642,-0.5182002903,2.2371602567
1548685905741509323,-0.0711592607,0.2866042659,-0.0239252111,9.7291640006,-0.4663910503,2.2907289187
1548685905746489323,-0.0746736186,0.2849792846,-0.0459081264,9.7686316941,-0.4495189307,2.3101157025
1548685905751468323,-0.0774224467,0.2767033907,-0.0635969148,9.7518878241,-0.4375225809,2.3572328911
1548685905756446323,-0.0772475763,0.2675635188,-0.0791628961,9.8152753319,-0.4230244773,2.3856726259
1548685905761425323,-0.0772983398,0.2575431565,-0.0920414390,9.8212552855,-0.4362357318,2.3129118652
1548685905766405323,-0.0746583586,0.2492378468,-0.1001123921,9.8069033969,-0.4578837803,2.2955285420
1548685905771384323,-0.0763816497,0.2409122506,-0.1078765235,9.7961394805,-0.4951494008,2.1983838778
1548685905776362323,-0.0795119372,0.2276429797,-0.1089124982,9.8236472669,-0.5720238246,2.1827887004
1548685905781342323,-0.0845762056,0.2172366228,-0.1077859234,9.8451750997,-0.6308802317,2.1871995295
1548685905786321323,-0.0927688641,0.2096704725,-0.1012645722,9.7949434898,-0.6429588036,2.1679582450
1548685905791299323,-0.1021319393,0.2034968666,-0.0866797423,9.7375359356,-0.7007104248,2.1535156847
1548685905796279323,-0.1160699254,0.2004367457,-0.0650767855,9.8057074062,-0.7535011175,2.1760459480
1548685905801258323,-0.1295091329,0.1979407399,-0.0407938897,9.7949434898,-0.7607244750,2.1761945266
1548685905806237323,-0.1453459469,0.1882152864,-0.0143364367,9.7793956105,-0.8040044211,2.1682114536
1548685905811216323,-0.1638472089,0.1813525213,0.0137530299,9.8475670812,-0.8399714465,2.2282510216
1548685905816195323,-0.1808904056,0.1701774573,0.0407591729,9.8702909047,-0.8651790507,2.2572552354
1548685905821174323,-0.1996180584,0.1578317021,0.0696603684,9.8726828861,-0.8303270890,2.3146564226
1548685905826153323,-0.2178950080,0.1460966667,0.0926506436,9.8714868954,-0.7834626268,2.3779649433
1548685905831132323,-0.2337643653,0.1297856131,0.1107907919,9.8463710905,-0.7606613401,2.3958859721
1548685905836111323,-0.2484281417,0.1117602243,0.1270423628,9.8176673133,-0.6970069804,2.4583928602
1548685905841090323,-0.2633567942,0.0986464287,0.1411445875,9.7626517405,-0.6826542337,2.5705076704
1548685905846069323,-0.2766117896,0.0861383887,0.1512044877,9.7064401770,-0.6526809784,2.6040906475
1548685905851048323,-0.2891877706,0.0759820700,0.1534707584,9.6574045578,-0.6371191999,2.5789644744
1548685905856027323,-0.3013066098,0.0718965692,0.1530434762,9.5581373286,-0.6180140164,2.6072756443
1548685905861006323,-0.3151525245,0.0747373514,0.1499411559,9.5067097279,-0.5736146018,2.6642357224
1548685905865985323,-0.3297435008,0.0830583957,0.1457671661,9.4803979322,-0.5508147834,2.7161697691
1548685905870964323,-0.3394950518,0.0948627962,0.1410109727,9.4385382572,-0.5328408143,2.6710160510
1548685905875943323,-0.3499395564,0.1080691153,0.1429716743,9.4552821272,-0.5977115471,2.6368077172
1548685905880922323,-0.3618127455,0.1180789970,0.1484376327,9.4648500529,-0.6565826368,2.6554491867
1548685905885902323,-0.3721952356,0.1274850714,0.1600659279,9.5533533657,-0.7021382261,2.5616426945
1548685905890880323,-0.3849895989,0.1342787619,0.1730598463,9.6298967714,-0.7404983548,2.5336462170
1548685905895859323,-0.4006809572,0.1335671831,0.1855481615,9.6777363999,-0.7596666731,2.5376882084
1548685905900839323,-0.4161183288,0.1302561841,0.1991101950,9.6992642327,-0.7848757456,2.5350566122
1548685905905817323,-0.4291176772,0.1292445168,0.2158707206,9.6777363999,-0.8377765572,2.5435697270
1548685905910796323,-0.4450287957,0.1319622848,0.2337277981,9.6849123442,-0.8942472023,2.5282464731
1548685905915775323,-0.4590108584,0.1355620404,0.2499563779,9.7148121120,-0.8930088055,2.4914972637
1548685905920755323,-0.4717980939,0.1354439710,0.2616132859,9.7781996198,-0.9169647987,2.4765717342
1548685905925733323,-0.4862956078,0.1336048387,0.2703333308,9.7770036291,-0.8845206228,2.5035426347
1548685905930713323,-0.5001164569,0.1323934927,0.2701872166,9.7566717870,-0.8869489641,2.4967866061
1548685905935691323,-0.5117738844,0.1323607559,0.2670679306,9.6992642327,-0.8305399855,2.5983725408
1548685905940671323,-0.5217656298,0.1381201433,0.2604392652,9.6753444185,-0.7800983485,2.6596453020
1548685905945650323,-0.5296073280,0.1499620407,0.2502967371,9.6861083349,-0.7788834437,2.6934949775
1548685905950629323,-0.5384224553,0.1577752970,0.2380181164,9.7184000841,-0.8064826830,2.7094740742
1548685905955608323,-0.5445834138,0.1647497444,0.2230320755,9.7124201306,-0.8389356684,2.7025301028
1548685905960587323,-0.5500447430,0.1777960558,0.2053503507,9.7016562142,-0.8377471922,2.7519131467
1548685905965566323,-0.5555117088,0.1885462146,0.1857911460,9.7626517405,-0.8412773829,2.7581163980
1548685905970545323,-0.5658325585,0.1969778422,0.1646655450,9.7913555176,-0.8208134059,2.7284123681
1548685905975524323,-0.5727712575,0.2071626144,0.1418979965,9.8021194341,-0.8400272401,2.7294428646
1548685905980503323,-0.5813712220,0.2144280016,0.1245168648,9.8045114155,-0.8784784003,2.7294201118
1548685905985482323,-0.5914161598,0.2205266564,0.1084917258,9.7566717870,-0.9242013703,2.7195332467
1548685905990461323,-0.6024066822,0.2257344006,0.0965027399,9.7770036291,-0.9001425996,2.6770471115
1548685905995440323,-0.6155721254,0.2323640019,0.0864110766,9.7746116477,-0.9361962518,2.6243354342
1548685906000419323,-0.6291987431,0.2369545239,0.0798152608,9.7973354712,-0.9517903318,2.6087897656
1548685906005398323,-0.6399069149,0.2452893934,0.0761441044,9.7997274526,-0.8941062502,2.6392221905
1548685906010377323,-0.6503718536,0.2490213527,0.0708635718,9.8092953783,-0.8760691463,2.6168134345
1548685906015356323,-0.6596288167,0.2513243575,0.0642311692,9.8140793412,-0.8340041049,2.6120482408
1548685906020335323,-0.6676710381,0.2567950821,0.0591964635,9.7770036291,-0.7751667850,2.6266061644
1548685906025314323,-0.6708613974,0.2619969792,0.0543878242,9.8176673133,-0.7390661487,2.6998975405
1548685906030293323,-0.6699250077,0.2686508454,0.0508841737,9.8296272205,-0.6909838452,2.7102728930
1548685906035272323,-0.6677867422,0.2767586912,0.0460264400,9.8607229790,-0.6693152412,2.6277824258
1548685906040251323,-0.6656364127,0.2834163315,0.0427805991,9.8798588304,-0.6176190567,2.6028900189
1548685906045230323,-0.6598570846,0.2869330001,0.0368205846,9.9109545890,-0.6860772420,2.6188958890
1548685906050210323,-0.6538417417,0.2956356270,0.0316598486,9.9145425611,-0.7437539824,2.6845105877
1548685906055188323,-0.6509995318,0.3063587286,0.0235721581,9.8559390162,-0.7774732615,2.6454598616
1548685906060167323,-0.6501198023,0.3185338616,0.0120103723,9.8942107190,-0.7702161343,2.6296963975
1548685906065146323,-0.6507184254,0.3304377269,-0.0038338361,9.9205225147,-0.7389398791,2.6211236118
1548685906070125323,-0.6496282774,0.3400556753,-0.0221073698,9.9719501153,-0.7761291505,2.5876076961
1548685906075104323,-0.6487930990,0.3548633154,-0.0406512205,9.9898899760,-0.8446034866,2.6108267071
1548685906080083323,-0.6535314728,0.3679171343,-0.0591447312,9.9851060132,-0.9070972669,2.6120802342
1548685906085063323,-0.6628877157,0.3838383803,-0.0784053597,10.0305536603,-0.9911598101,2.6407897717
1548685906090042323,-0.6761288754,0.4000355511,-0.0984375072,10.0927451774,-1.0824119408,2.6352761943
1548685906095021323,-0.6929742052,0.4133078808,-0.1136031188,10.1967963694,-1.1567890155,2.5998801728
1548685906099999323,-0.7102955522,0.4188014781,-0.1301008149,10.2601838772,-1.2047788191,2.6130960141
1548685906104979323,-0.7288253944,0.4231352148,-0.1463185067,10.3821749300,-1.2635118931,2.6325495612
1548685906109958323,-0.7475759002,0.4214050052,-0.1609186338,10.4945980570,-1.2657772585,2.5923317373
1548685906114936323,-0.7665347234,0.4127357745,-0.1720212820,10.5352617413,-1.2200630980,2.6339685365
1548685906119915323,-0.7852484836,0.3985987534,-0.1847326424,10.5663574998,-1.1815708267,2.5983657780
1548685906124894323,-0.7993438099,0.3827445661,-0.1961408416,10.5783174070,-1.1130597843,2.5981851910
1548685906129873323,-0.8095189196,0.3619770006,-0.2022100869,10.6165891098,-1.0457181308,2.6222645468
1548685906134853323,-0.8160669060,0.3403718979,-0.2104583475,10.5854933512,-0.9472176824,2.5910110717
1548685906139831323,-0.8177374451,0.3170346546,-0.2144524699,10.5651615091,-0.8270735902,2.5197471058
1548685906144811323,-0.8142740087,0.2945420245,-0.2107065404,10.5388497134,-0.7285672687,2.4767054120
1548685906149790323,-0.8069498288,0.2761124348,-0.2088770550,10.5316737691,-0.6348442173,2.5049144253
1548685906154769323,-0.7959526077,0.2585270071,-0.2003685893,10.5292817877,-0.5495271266,2.4674115525
1548685906159748323,-0.7832515920,0.2386410985,-0.1916048056,10.4910100849,-0.4918929655,2.3788236437
1548685906164727323,-0.7676397778,0.2268224821,-0.1796512178,10.4850301313,-0.4510428289,2.4117191049
1548685906169706323,-0.7507939284,0.2161389675,-0.1634137406,10.5328697599,-0.3933029537,2.4321535951
1548685906174685323,-0.7349122115,0.2019932039,-0.1474335481,10.5878853327,-0.3836218899,2.3845091534
1548685906179664323,-0.7226696369,0.1886966288,-0.1314220551,10.6285490169,-0.4003956367,2.4015436551
1548685906184643323,-0.7087094641,0.1736615957,-0.1124710432,10.6919365247,-0.4063262720,2.4475731323
1548685906189622323,-0.6942552117,0.1557428078,-0.0929851514,10.7062884133,-0.4375526066,2.4661423054
1548685906194601323,-0.6814971518,0.1372401103,-0.0734839002,10.7445601161,-0.5336408645,2.5430170634
1548685906199581323,-0.6743171965,0.1184265151,-0.0542018799,10.7732638932,-0.5924884621,2.5180225594
1548685906204559323,-0.6717333769,0.0992945555,-0.0329998996,10.7732638932,-0.7390947061,2.4711681082
1548685906209538323,-0.6730397379,0.0758403899,-0.0152505407,10.8581792338,-0.8050834391,2.4254800818
1548685906214517323,-0.6772900396,0.0472280816,-0.0055255572,10.9311346674,-0.8482547346,2.4549764707
1548685906219496323,-0.6873601766,0.0229063292,0.0058580359,10.8617672060,-0.8964075142,2.4594512893
1548685906224475323,-0.7005984200,0.0031894975,0.0161919332,10.7864197911,-0.9830217318,2.4733958832
1548685906229454323,-0.7189195590,-0.0174214649,0.0279135664,10.7636959675,-1.0503442980,2.4385538783
1548685906234433323,-0.7387157070,-0.0299635757,0.0391048600,10.7589120047,-1.0647704573,2.4421396888
1548685906239412323,-0.7595049503,-0.0421997315,0.0462774909,10.8091436146,-1.0502885044,2.3851808252
1548685906244392323,-0.7817397315,-0.0567528805,0.0542700711,10.7935957353,-1.0310805433,2.3220836160
1548685906249370323,-0.8022546103,-0.0698819984,0.0668105219,10.8127315867,-0.9493420956,2.3089065156
1548685906254349323,-0.8213242334,-0.0812692536,0.0782630017,10.7708719118,-0.8544599330,2.3563448286
1548685906259328323,-0.8375149914,-0.0914631101,0.0845882021,10.7373841718,-0.7896097557,2.3626461987
1548685906264308323,-0.8479029937,-0.0978753070,0.0892485963,10.7170523297,-0.6550453772,2.3710949713
1548685906269286323,-0.8539145751,-0.1019783469,0.0968219705,10.7003084597,-0.5433087140,2.3689499801
1548685906274266323,-0.8567739209,-0.1123971347,0.1019563318,10.8031636610,-0.4578624171,2.3358739071
1548685906279245323,-0.8587033154,-0.1216221545,0.1003696753,10.7804398375,-0.3052756173,2.3466952685
1548685906284224323,-0.8575082170,-0.1339713051,0.0925830707,10.8019676703,-0.1982987321,2.2561072616
1548685906289202323,-0.8507250623,-0.1471700136,0.0863589039,10.7912037539,-0.1322189675,2.2292741445
1548685906294181323,-0.8390792920,-0.1586340597,0.0830438979,10.7361881811,-0.0782104335,2.2007027330
1548685906299160323,-0.8298524323,-0.1686758383,0.0813598810,10.6728006733,-0.0314223204,2.2320346186
1548685906304140323,-0.8140965743,-0.1743562321,0.0780042224,10.6261570355,0.0021677525,2.1623238006
1548685906309119323,-0.8039199957,-0.1812094911,0.0738930681,10.5998452398,0.0153540467,2.1181316700
1548685906314098323,-0.7947097523,-0.1883581408,0.0703275877,10.5316737691,-0.0003516204,2.0932743584
1548685906319077323,-0.7867232988,-0.1880207615,0.0675724011,10.4635022985,-0.0436961697,2.0227044100
1548685906324056323,-0.7816250070,-0.1894431729,0.0680656861,10.4407784749,-0.0437240664,1.9585376480
1548685906329035323,-0.7765301831,-0.1856835849,0.0698973093,10.3331393107,-0.0895204490,2.0069086793
1548685906334014323,-0.7758111136,-0.1767535455,0.0717633063,10.2601838772,-0.1148455134,1.9739129415
1548685906338993323,-0.7770367787,-0.1669640821,0.0731087583,10.2243041558,-0.1629571819,1.9580021553
1548685906343972323,-0.7811829457,-0.1528613144,0.0742079979,10.1800524994,-0.2014656040,2.0055072566
1548685906348951323,-0.7872931858,-0.1344279505,0.0726363221,10.1836404716,-0.1870409130,1.9890424440
1548685906353930323,-0.7939182560,-0.1125153119,0.0670392873,10.1979923601,-0.1701996266,1.9900147921
1548685906358909323,-0.8017827608,-0.0920202430,0.0560847269,10.2111482580,-0.1581665706,2.0109337838
1548685906363888323,-0.8086998509,-0.0714991436,0.0410946773,10.2470279794,-0.1629292851,2.0514764297
1548685906368868323,-0.8163170335,-0.0518708216,0.0306755786,10.2757317565,-0.1196331882,2.1155505887
1548685906373846323,-0.8258626620,-0.0334127805,0.0218851988,10.3546671436,-0.1243430457,2.0851682809
1548685906378825323,-0.8332320141,-0.0212688463,0.0095904727,10.4527383821,-0.1590716743,2.1084586395
1548685906383804323,-0.8410802865,-0.0105713842,-0.0021619563,10.5149298992,-0.1710122304,2.1533336594
1548685906388783323,-0.8479392251,-0.0047794640,-0.0123083608,10.6022372212,-0.1552830712,2.1708963130
1548685906393762323,-0.8538226788,-0.0030165544,-0.0229971195,10.6907405340,-0.0794679176,2.1790488622
1548685906398741323,-0.8580026202,-0.0041292560,-0.0336985818,10.7290122368,-0.0433702178,2.1867240174
1548685906403720323,-0.8604442130,-0.0075759358,-0.0379700460,10.7660879489,-0.0168875104,2.1955902400
1548685906408699323,-0.8606925290,-0.0133253734,-0.0411850611,10.8091436146,-0.0216414155,2.2700317798
1548685906413678323,-0.8643353423,-0.0199528804,-0.0446380430,10.8079476239,0.0023909268,2.2688696239
1548685906418657323,-0.8652959617,-0.0300356831,-0.0467694881,10.8007716796,0.0083905699,2.2818612103
1548685906423637323,-0.8662707122,-0.0398170848,-0.0513173337,10.7732638932,0.0383990632,2.3443604173
1548685906428616323,-0.8682001520,-0.0476035503,-0.0523681680,10.7864197911,0.0732642392,2.3922364696
1548685906433594323,-0.8696747542,-0.0524816871,-0.0577209070,10.8414353639,0.1213993997,2.3996802972
1548685906438574323,-0.8750231016,-0.0588209415,-0.0625015153,10.8605712153,0.1538685359,2.4650599556
1548685906443552323,-0.8803660496,-0.0648777282,-0.0662084875,10.8761190945,0.2560313178,2.4777171415
1548685906448532323,-0.8840078801,-0.0740955068,-0.0704648707,10.9072148531,0.3137506375,2.5523057027
1548685906453511323,-0.8871715922,-0.0850307588,-0.0766034384,10.9418985838,0.3798861957,2.5764342767
1548685906458490323,-0.8874137632,-0.0951016847,-0.0803520625,10.9622304259,0.4796514695,2.5620639532
1548685906463469323,-0.8876352853,-0.1120974782,-0.0830215178,11.0016981194,0.5253641617,2.5720649424
1548685906468448323,-0.8866539940,-0.1287910093,-0.0873126353,10.9849542495,0.5601926314,2.5898687678
1548685906473427323,-0.8849518145,-0.1466258373,-0.0932200465,10.9717983516,0.6430931268,2.5794761533
1548685906478406323,-0.8810525064,-0.1650409446,-0.0967300147,10.9789742959,0.7200101299,2.5934262305
1548685906483385323,-0.8735084647,-0.1805705337,-0.0978579812,10.9347226395,0.7499980677,2.5283729314
1548685906488363323,-0.8630364545,-0.1989821547,-0.0968615915,10.8749231038,0.7883787519,2.5221444463
1548685906493343323,-0.8559526498,-0.2177025403,-0.0947612895,10.8533952710,0.7667218939,2.4732068303
1548685906498322323,-0.8476278629,-0.2364453670,-0.0875708197,10.8593752246,0.7030396374,2.4672801314
1548685906503301323,-0.8424338608,-0.2526333676,-0.0755222809,10.8342594196,0.6309073726,2.4863977881
1548685906508280323,-0.8374765739,-0.2708419246,-0.0632015977,10.8306714474,0.5936505616,2.4489426286
1548685906513259323,-0.8373454735,-0.2931220758,-0.0481505533,10.8581792338,0.5648437588,2.4110614241
1548685906518238323,-0.8367418801,-0.3102093969,-0.0333762188,10.8414353639,0.5528062980,2.4171542542
1548685906523217323,-0.8385742428,-0.3284472452,-0.0209958685,10.8593752246,0.5624418460,2.4204241405
1548685906528196323,-0.8421073955,-0.3443875255,-0.0083339077,10.8629631967,0.6585814927,2.4320736000
1548685906533175323,-0.8434936524,-0.3591331762,-0.0015982264,10.7900077632,0.7738542197,2.4060756362
1548685906538154323,-0.8417285097,-0.3727135102,0.0053773315,10.7409721440,0.8687275728,2.4325103609
1548685906543134323,-0.8378086771,-0.3845313663,0.0080369532,10.6787806269,0.9768033709,2.4180905187
1548685906548112323,-0.8317174368,-0.3911505258,0.0106734127,10.6118051469,1.1185206307,2.4588253913
1548685906553090323,-0.8207809539,-0.3977443938,0.0124618599,10.5711414627,1.2422448342,2.4194897736
1548685906558070323,-0.8074042451,-0.4052057885,0.0166458406,10.5436336763,1.3515649021,2.3729447103
1548685906563049323,-0.7893830879,-0.4103817389,0.0283045642,10.4969900385,1.4776851454,2.3243115899
1548685906568028323,-0.7638532229,-0.4158048146,0.0382866632,10.3797829486,1.5772815703,2.2215490237
1548685906573008323,-0.7380737314,-0.4189321481,0.0504125755,10.2039723137,1.7056466234,2.1922605664
1548685906577987323,-0.7110579005,-0.4177618906,0.0684307291,10.0185937532,1.7943441432,2.1162206788
1548685906582965323,-0.6779782785,-0.4102375891,0.0890753832,9.8176673133,1.7376180222,2.1260079329
1548685906587945323,-0.6458316465,-0.3932591326,0.1199229033,9.6394646971,1.6160285097,2.1671541639
1548685906592923323,-0.6148867323,-0.3636374066,0.1574829493,9.5282375607,1.4728907899,2.1733962307
1548685906597903323,-0.5868442466,-0.3311584074,0.1974825329,9.5330215236,1.3455174673,2.1663298556
1548685906602882323,-0.5622011039,-0.3078961407,0.2332236023,9.5856451150,1.2230096369,2.1879176235
1548685906607861323,-0.5429315662,-0.2903732392,0.2598881912,9.7088321584,1.1919169132,2.1628003657
1548685906612839323,-0.5239835307,-0.2730624881,0.2723265219,9.7315559820,1.1691126900,2.1343612393
1548685906617819323,-0.5040959311,-0.2640614567,0.2761718875,9.7650437220,1.1679521105,2.2030707802
1548685906622797323,-0.4871818449,-0.2561620707,0.2682312786,9.7363399448,1.1619084199,2.2597340263
1548685906627777323,-0.4688444736,-0.2453487152,0.2557117769,9.7315559820,1.1042214017,2.2117497008
1548685906632756323,-0.4497665479,-0.2400112525,0.2434585515,9.7303599913,0.9972694768,2.1848304995
1548685906637735323,-0.4338266927,-0.2393044531,0.2320419627,9.6861083349,0.8962731474,2.1420844754
1548685906642713323,-0.4161826137,-0.2354322110,0.2230242018,9.7004602234,0.8217859539,2.0504684876
1548685906647693323,-0.4016697035,-0.2359096208,0.2161851779,9.7100281491,0.7400827442,1.9471965562
1548685906652672323,-0.3910160796,-0.2390129732,0.2120668847,9.6346807342,0.6763006466,1.8415606485
1548685906657651323,-0.3817933430,-0.2421459047,0.2122568069,9.5366094957,0.6172974143,1.7760914914
1548685906662630323,-0.3740061927,-0.2487562850,0.2146098853,9.4899658579,0.5799877462,1.7017096399
1548685906667609323,-0.3645227032,-0.2498919625,0.2188230925,9.4624580715,0.5571218564,1.6610599524
1548685906672588323,-0.3552793065,-0.2507433055,0.2235751381,9.4265783501,0.4753628532,1.6287455817
1548685906677567323,-0.3464985866,-0.2536322714,0.2315545670,9.4122264616,0.3744032301,1.6336562919
1548685906682546323,-0.3345890023,-0.2553340745,0.2357469073,9.4337542944,0.3359755619,1.6697139995
1548685906687525323,-0.3268219473,-0.2630757825,0.2340739057,9.4588700994,0.2795269405,1.7092443173
1548685906692504323,-0.3193537237,-0.2753671497,0.2205941447,9.4433222201,0.2038013502,1.7423000762
1548685906697483323,-0.3148306044,-0.2844721711,0.2020366982,9.4086384894,0.1725148173,1.7638822913
1548685906702462323,-0.3135084173,-0.2961330023,0.1738442295,9.4493021737,0.1713630473,1.7668451838
1548685906707441323,-0.3136877733,-0.3063164076,0.1378779739,9.3799347123,0.2109336760,1.7912266313
1548685906712421323,-0.3121962396,-0.3138774598,0.0981363089,9.2531596967,0.2203915655,1.7800570269
1548685906717399323,-0.3124185427,-0.3151004669,0.0578677631,9.1622644025,0.1938427868,1.7402723457
1548685906722379323,-0.3104387810,-0.3114421990,0.0229455634,9.0665851454,0.1756999688,1.7579934469
1548685906727357323,-0.3128215350,-0.3032017177,-0.0097941052,9.0319014147,0.1672455559,1.7397115943
1548685906732336323,-0.3161577130,-0.2949814413,-0.0395721420,9.0235294798,0.1540166823,1.6448727655
1548685906737316323,-0.3214214445,-0.2876446089,-0.0674532168,9.0175495262,0.0674876233,1.6355980504
1548685906742294323,-0.3293198142,-0.2794879007,-0.0891368349,9.0151575448,0.0254255185,1.6661212481
1548685906747273323,-0.3379431048,-0.2661581571,-0.1084018645,9.0665851454,0.0543292259,1.6583790066
1548685906752253323,-0.3458080498,-0.2603354678,-0.1249828895,9.1503044954,0.0700539803,1.6724736691
1548685906757231323,-0.3536632352,-0.2591254731,-0.1415603736,9.2089080403,0.0629157815,1.7115348650
1548685906762210323,-0.3583663204,-0.2599155636,-0.1589694040,9.2699035667,0.0798143297,1.7646249013
1548685906767189323,-0.3603806939,-0.2707844162,-0.1763941292,9.3536229166,0.1219762757,1.8080203015
1548685906772168323,-0.3582555539,-0.2848169072,-0.1919733960,9.4074424987,0.1941437784,1.8377479832
1548685906777147323,-0.3534283166,-0.3046256052,-0.2035447119,9.4947498208,0.2507304155,1.8377156593
1548685906782127323,-0.3456953185,-0.3281579129,-0.2172864371,9.5700972357,0.2628398206,1.7991718473
1548685906787105323,-0.3355256187,-0.3551436496,-0.2302414232,9.5258455793,0.2555753521,1.7317834934
1548685906792085323,-0.3238802435,-0.3827186296,-0.2397187160,9.4851818951,0.2194747158,1.7311747481
1548685906797064323,-0.3136768367,-0.4114632548,-0.2473030873,9.4469101922,0.1929905402,1.7445985383
1548685906802043323,-0.3015330557,-0.4361721416,-0.2532968185,9.3249191395,0.1916390880,1.7192988857
1548685906807022323,-0.2915646135,-0.4557186389,-0.2560537825,9.1981441239,0.1758614765,1.6401423193
1548685906812001323,-0.2806354164,-0.4694979963,-0.2582867678,9.1251886904,0.1829820563,1.6399626810
1548685906816980323,-0.2704600125,-0.4772132227,-0.2629341868,9.0211374983,0.2237117963,1.5827555855
1548685906821959323,-0.2592902370,-0.4780430891,-0.2606153680,8.9230662598,0.2764657827,1.5770451153
1548685906826938323,-0.2495697047,-0.4780216340,-0.2569421057,8.8154270956,0.2775353306,1.5058294861
1548685906831917323,-0.2391580376,-0.4693307614,-0.2565034477,8.7974872350,0.2979420457,1.5224810097
1548685906836896323,-0.2258182553,-0.4586311275,-0.2520649452,8.8477188449,0.3028104744,1.4854537180
1548685906841874323,-0.2122410573,-0.4490763391,-0.2489700102,8.8393469099,0.3136154113,1.4234331443
1548685906846854323,-0.1969664469,-0.4395142279,-0.2458899919,8.9075183806,0.3317244595,1.3287151893
1548685906851833323,-0.1831461063,-0.4316852411,-0.2433327887,9.0115695726,0.3234403638,1.2921299307
1548685906856812323,-0.1671104733,-0.4287696732,-0.2367640366,9.0187455169,0.2549528134,1.2357792388
1548685906861791323,-0.1483899692,-0.4284488899,-0.2280690186,9.0905049597,0.1997631444,1.1597879658
1548685906866770323,-0.1325835397,-0.4275611605,-0.2198858003,9.1311686439,0.1180981093,1.0924334604
1548685906871750323,-0.1187105826,-0.4304281579,-0.2119511217,9.1216007182,-0.0201080471,1.0738424931
1548685906876728323,-0.1063104320,-0.4283931620,-0.2053497412,9.1383445882,-0.1054075188,0.9962642758
1548685906881707323,-0.0963393356,-0.4272276820,-0.1998002446,9.1586764303,-0.2363668257,0.9374056579
1548685906886687323,-0.0883181360,-0.4234715609,-0.1950410852,9.1718323282,-0.3517129653,0.8962253650
1548685906891665323,-0.0883052700,-0.4217578208,-0.1920893052,9.1407365696,-0.4454830007,0.8720549633
1548685906896644323,-0.0892702385,-0.4177390051,-0.1896677005,9.1072488297,-0.5572813305,0.8408879846
1548685906901624323,-0.0929059017,-0.4128653601,-0.1874917835,9.0940929318,-0.6414158180,0.8645348882
1548685906906602323,-0.1040985289,-0.4019437678,-0.1900868125,9.0522332569,-0.7087618762,0.8616058518
1548685906911582323,-0.1167524180,-0.3901592027,-0.1934751126,8.9912377305,-0.7328705675,0.8683049885
1548685906916561323,-0.1306334856,-0.3777901739,-0.1992693797,8.9792778234,-0.6908260817,0.8919032549
1548685906921540323,-0.1476903635,-0.3642611813,-0.2087953303,8.9852577769,-0.6619781678,0.9293279631
1548685906926519323,-0.1679066160,-0.3467111369,-0.2180282125,8.9888457491,-0.5886706411,0.9656015838
1548685906931498323,-0.1818199335,-0.3311461217,-0.2283888079,9.0486452847,-0.4900586055,0.9694503627
1548685906936477323,-0.1933125104,-0.3178682542,-0.2403797285,9.1144247740,-0.3589935845,0.9743816105
1548685906941456323,-0.1960628186,-0.3077297796,-0.2513710720,9.1216007182,-0.2640512235,0.9848101671
1548685906946435323,-0.1958872707,-0.3001835872,-0.2605067449,9.1419325604,-0.1486639729,0.9938818504
1548685906951414323,-0.1920565742,-0.2960914188,-0.2677924761,9.1371485975,-0.0573413661,0.9540654438
1548685906956393323,-0.1819257102,-0.2919676821,-0.2759390053,9.1144247740,-0.0141084040,0.9531918228
1548685906961372323,-0.1678966906,-0.2887081081,-0.2811658582,9.0940929318,0.0183122799,0.9147747505
1548685906966351323,-0.1536054609,-0.2820141823,-0.2815651395,9.0905049597,0.0723839488,0.8491609757
1548685906971330323,-0.1342042482,-0.2758908953,-0.2790556206,9.1072488297,0.0663960517,0.8020422473
1548685906976309323,-0.1140637914,-0.2717898058,-0.2752086237,9.1311686439,0.1096862756,0.7079210529
1548685906981288323,-0.0893213814,-0.2708284164,-0.2735473954,9.1311686439,0.1517454439,0.6410891466
1548685906986266323,-0.0628915107,-0.2686992485,-0.2732442909,9.0893089690,0.1853413898,0.6287558393
1548685906991246323,-0.0338030546,-0.2645361503,-0.2737715691,9.0534292476,0.1720787465,0.5448426940
1548685906996225323,-0.0042320635,-0.2592177861,-0.2743039946,9.0283134426,0.1984851048,0.5123538777
1548685907001204323,0.0251015572,-0.2541931307,-0.2740286747,9.0187455169,0.1876581440,0.4949025692
1548685907006183323,0.0546860695,-0.2488878742,-0.2721449210,8.9278502227,0.1719245801,0.4433921115
1548685907011162323,0.0847400589,-0.2475933308,-0.2745577605,8.9134983341,0.1322511737,0.3545030770
1548685907016140323,0.1090115347,-0.2440583261,-0.2694042256,8.8752266313,0.0877416403,0.3444854764
1548685907021120323,0.1298777707,-0.2341984248,-0.2636887972,8.7891153000,0.0840308546,0.3104912330
1548685907026098323,0.1478303051,-0.2260735554,-0.2592887913,8.7269237829,0.0467020992,0.2714903411
1548685907031078323,0.1655204034,-0.2141902665,-0.2570372461,8.6145006558,-0.0603863731,0.2683610692
1548685907036057323,0.1771434911,-0.1922588815,-0.2517870649,8.5869928694,-0.1108911449,0.2769550853
1548685907041036323,0.1851413757,-0.1732319480,-0.2454288487,8.5391532409,-0.1193617087,0.1990652452
1548685907046015323,0.1921186144,-0.1472552034,-0.2455105645,8.5415452223,-0.1085435574,0.1497932459
1548685907050995323,0.1995549604,-0.1203881840,-0.2498926357,8.5439372037,-0.1205575262,0.1732097284
1548685907055973323,0.2038428661,-0.0932508399,-0.2534418327,8.6168926373,-0.1252747249,0.1558042433
1548685907060952323,0.2105295420,-0.0672285366,-0.2621122767,8.7221398200,-0.0434305631,0.0711152654
1548685907065931323,0.2193749403,-0.0434754941,-0.2759009515,8.8058591699,0.0455973133,0.0453329266
1548685907070910323,0.2306313536,-0.0280419149,-0.2953422692,8.8991464456,0.1310318642,0.0065257786
1548685907075889323,0.2433289787,-0.0160411904,-0.3185522180,8.9661219255,0.2344594714,0.0407553180
1548685907080868323,0.2633500040,-0.0072210891,-0.3343066594,9.0247254705,0.2958176325,0.0106332320
1548685907085848323,0.2855935510,-0.0038968192,-0.3449752521,9.0809370340,0.3367441181,0.0028226974
1548685907090827323,0.3086160585,-0.0043594609,-0.3478618945,9.1562844489,0.3200129507,-0.0310245221
1548685907095806323,0.3365203284,-0.0100108513,-0.3470286717,9.2196719567,0.3176873870,-0.0998814174
1548685907100785323,0.3651840281,-0.0194302201,-0.3419035351,9.3069792788,0.3093827357,-0.1503060338
1548685907105764323,0.3936266461,-0.0311730027,-0.3338213894,9.3081752695,0.2733334882,-0.1749314095
1548685907110742323,0.4218610031,-0.0420869047,-0.3192946322,9.3141552231,0.2481053284,-0.2218984799
1548685907115722323,0.4488998214,-0.0553240359,-0.3026077349,9.3859146659,0.1989241120,-0.2638945781
1548685907120700323,0.4744811281,-0.0723050633,-0.2877844252,9.4074424987,0.1773201111,-0.3087299160
1548685907125679323,0.5003061422,-0.0898616315,-0.2729628040,9.3835226844,0.1676772219,-0.3869455170
1548685907130659323,0.5278248637,-0.1042425621,-0.2576216051,9.2926273902,0.1399267527,-0.3939054764
1548685907135638323,0.5502403230,-0.1120176254,-0.2417038174,9.1897721889,0.1061531483,-0.3772548518
1548685907140617323,0.5724095898,-0.1166254201,-0.2252494045,9.0964849133,0.0411473364,-0.3454867417
1548685907145596323,0.5938391492,-0.1140319307,-0.2082572028,9.0689771269,-0.0105591259,-0.3568215262
1548685907150575323,0.6094352166,-0.1028191148,-0.1904151041,9.0725650990,-0.0249750075,-0.3896911551
1548685907155554323,0.6257532002,-0.0967764217,-0.1755285226,9.1383445882,0.0279801294,-0.4210812066
1548685907160533323,0.6386304865,-0.0938686277,-0.1700059254,9.1586764303,0.0700642581,-0.3733048226
1548685907165512323,0.6526967826,-0.0912205942,-0.1687891913,9.0665851454,0.1048002279,-0.3626799840
1548685907170491323,0.6667373578,-0.0827935849,-0.1699930626,9.0498412754,0.1059813629,-0.3718304478
1548685907175470323,0.6831905519,-0.0763581478,-0.1741698021,9.0163535355,0.0710912266,-0.3479190112
1548685907180449323,0.6969639920,-0.0676205888,-0.1796671933,8.9170863063,0.0301118839,-0.2867680304
1548685907185428323,0.7088151424,-0.0551683431,-0.1805865198,8.9182822970,-0.0371813172,-0.3254530056
1548685907190407323,0.7218784931,-0.0447245515,-0.1823203451,8.9625339534,-0.1176402570,-0.3658938178
1548685907195386323,0.7310654216,-0.0366023887,-0.1842867688,9.0055896191,-0.1380161389,-0.4063337236
1548685907200366323,0.7388116919,-0.0331035664,-0.1854314727,9.0677811361,-0.1944192444,-0.4528867487
1548685907205344323,0.7448501238,-0.0324789806,-0.1895121547,9.0558212290,-0.1932322364,-0.4433456182
1548685907210323323,0.7535714611,-0.0292686365,-0.1898597681,8.9888457491,-0.1921127680,-0.4693958450
1548685907215302323,0.7601139805,-0.0249203593,-0.1891152307,8.9493780555,-0.1801443151,-0.5169252312
1548685907220282323,0.7705455962,-0.0199889522,-0.1865259809,8.9099103620,-0.1273183843,-0.5081946636
1548685907225260323,0.7817063686,-0.0116036243,-0.1823349936,8.8919705013,-0.1225336460,-0.4856776343
1548685907230238323,0.7907051315,-0.0015212533,-0.1738307259,8.8285829935,-0.1718807748,-0.5012131334
1548685907235218323,0.8011705105,0.0094191671,-0.1629237288,8.8321709656,-0.2535913257,-0.4520044829
1548685907240197323,0.8087173079,0.0209309028,-0.1533339245,8.8154270956,-0.3004778117,-0.3943215007
1548685907245176323,0.8140993735,0.0347177248,-0.1396997467,8.8716386592,-0.3448713533,-0.3892148661
1548685907250155323,0.8194711033,0.0427605246,-0.1300881080,9.0043936283,-0.3242796384,-0.3828236795
1548685907255134323,0.8238694946,0.0438975748,-0.1236842062,9.0558212290,-0.3470486236,-0.4057925860
1548685907260113323,0.8302025220,0.0404448633,-0.1199784547,9.0677811361,-0.3758745136,-0.3660900129
1548685907265093323,0.8348651341,0.0383971680,-0.1108896059,9.0474492940,-0.3879163792,-0.3376745631
1548685907270071323,0.8378367160,0.0340343462,-0.1015156057,9.0307054240,-0.3759200294,-0.3022803794
1548685907275050323,0.8427432727,0.0334247950,-0.0916246014,9.0319014147,-0.3891371570,-0.2612627781
1548685907280029323,0.8466883289,0.0316520600,-0.0806503307,9.0354893869,-0.4275868490,-0.2437173269
1548685907285009323,0.8511203819,0.0324687760,-0.0683399919,9.0055896191,-0.5141452730,-0.2409429682
1548685907289988323,0.8560528514,0.0295324878,-0.0546887163,9.0295094333,-0.5417547901,-0.1709239246
1548685907294966323,0.8587713390,0.0280559232,-0.0461201911,8.9972176841,-0.6066857212,-0.1575717975
1548685907299945323,0.8617241019,0.0297530887,-0.0378246957,8.9685139069,-0.6559902707,-0.1559955888
1548685907304925323,0.8624890327,0.0325969256,-0.0300478356,8.9386141391,-0.7185148843,-0.1543996895
1548685907309903323,0.8622661774,0.0389062938,-0.0241443578,8.9314381948,-0.7942301969,-0.1507655671
1548685907314883323,0.8612915848,0.0432221413,-0.0233337605,8.9732978698,-0.9251630752,-0.1055829027
1548685907319862323,0.8523046259,0.0495273464,-0.0235282480,8.9756898512,-0.9936564986,-0.1478007749
1548685907324841323,0.8459759248,0.0587299058,-0.0242853179,9.0043936283,-1.0741345257,-0.2360939627
1548685907329820323,0.8362329135,0.0664981985,-0.0290384130,9.0701731176,-1.1425501318,-0.1689796705
1548685907334799323,0.8225956437,0.0754145781,-0.0359060128,9.1263846811,-1.2290028417,-0.1931697705
1548685907339778323,0.8062674482,0.0883701222,-0.0454379137,9.1610684118,-1.2590025255,-0.1760503643
1548685907344757323,0.7923441227,0.0973276913,-0.0600888486,9.2411997896,-1.2589041526,-0.1747980938
1548685907349736323,0.7764590624,0.1031333355,-0.0798211239,9.2974113531,-1.2888774079,-0.1204585336
1548685907354715323,0.7588854570,0.1040321253,-0.0998031847,9.3237231488,-1.2576011527,-0.1255144177
1548685907359694323,0.7435167743,0.1049184841,-0.1157774588,9.3404670188,-1.2371518583,-0.0835450830
1548685907364673323,0.7305599648,0.1084172268,-0.1331173562,9.3033913066,-1.1927348247,-0.0818787696
1548685907369652323,0.7200329101,0.1096200834,-0.1504767927,9.2998033345,-1.2011510631,-0.0607262947
1548685907374631323,0.7076110261,0.1107708791,-0.1597652510,9.3452509816,-1.1746580780,-0.0191497823
1548685907379611323,0.6946965197,0.1162425273,-0.1687843027,9.3655828237,-1.1313722589,-0.0569516425
1548685907384589323,0.6839501227,0.1171341984,-0.1821144216,9.3835226844,-1.0760724710,-0.0970685762
1548685907389568323,0.6761478021,0.1188683495,-0.1890276317,9.3966785823,-1.0652411055,-0.0949060846
1548685907394547323,0.6688430401,0.1217432025,-0.1932613455,9.3847186751,-1.0268016912,-0.0994421062
1548685907399526323,0.6654517848,0.1228759049,-0.1921585399,9.4385382572,-1.0207271673,-0.1048665027
1548685907404505323,0.6620802973,0.1260033588,-0.1867618538,9.4792019415,-1.0411059856,-0.1265169937
1548685907409485323,0.6601670669,0.1282707528,-0.1811088253,9.4780059508,-1.0843683127,-0.0643576780
1548685907414463323,0.6592808760,0.1304869880,-0.1652626753,9.4911618486,-1.0843521620,-0.0903276268
1548685907419443323,0.6608118109,0.1307072818,-0.1515840006,9.5509613843,-1.1095142504,-0.1075485390
1548685907424421323,0.6584666060,0.1291810772,-0.1378699026,9.5976050221,-1.0770113444,-0.1011588846
1548685907429400323,0.6578423315,0.1250500779,-0.1209471574,9.6047809664,-0.9928841982,-0.1094843645
1548685907434379323,0.6593628404,0.1224034579,-0.1102193775,9.5916250685,-0.9700682290,-0.1011047741
1548685907439359323,0.6608675802,0.1243753581,-0.1005689959,9.6119569107,-0.9171688857,-0.0849832750
1548685907444337323,0.6628531154,0.1254902959,-0.0919960696,9.5999970035,-0.8486872083,-0.1106284041
1548685907449316323,0.6653077097,0.1263350529,-0.0863802919,9.5593333193,-0.8259050089,-0.1065630365
1548685907454296323,0.6672612776,0.1312211074,-0.0821056723,9.5605293100,-0.7730291575,-0.0479778644
1548685907459274323,0.6696970980,0.1366872975,-0.0781042215,9.5497653936,-0.7730423718,-0.0994123553
1548685907464253323,0.6721055034,0.1444816808,-0.0781315065,9.5150816629,-0.7814967848,-0.0590791831
1548685907469233323,0.6752637708,0.1565730193,-0.0725307527,9.4457142015,-0.7875903960,-0.0628212458
1548685907474211323,0.6765077688,0.1657541215,-0.0634207016,9.4564781179,-0.8476617080,-0.0383342694
1548685907479190323,0.6765386290,0.1780953950,-0.0532285726,9.4792019415,-0.9065166469,-0.0245613397
1548685907484170323,0.6763595339,0.1878147666,-0.0381999626,9.5497653936,-0.9797331420,-0.0020584484
1548685907489149323,0.6742138693,0.1952500063,-0.0287902858,9.6143488921,-1.0096961195,-0.0205156431
1548685907494128323,0.6735202154,0.1998173269,-0.0210019677,9.6992642327,-0.9759445390,0.0158318062
1548685907499107323,0.6718675008,0.2020682902,-0.0121294980,9.7686316941,-1.0083050245,-0.0120683904
1548685907504086323,0.6692531840,0.1968267223,-0.0045850720,9.8619189697,-1.0814936229,-0.0273888803
1548685907509065323,0.6666569859,0.1886905691,0.0051092818,9.8846427933,-1.1079029177,0.0297508533
1548685907514044323,0.6652593313,0.1828747321,0.0131804242,9.9348744032,-1.1643207057,0.0361143850
1548685907519023323,0.6580553514,0.1721298875,0.0218434007,9.9384623754,-1.2412244945,0.0278790794
1548685907524002323,0.6513526351,0.1593574301,0.0326513793,10.0018498832,-1.2735923214,-0.0081457035
1548685907528981323,0.6439329277,0.1480101938,0.0458808233,10.0317496510,-1.2675471624,-0.0191055337
1548685907533960323,0.6343008763,0.1338055619,0.0526885147,10.0114178089,-1.2447400028,-0.0926891574
1548685907538939323,0.6217508985,0.1184453977,0.0576434125,9.9863020039,-1.2015099772,-0.0313982451
1548685907543918323,0.6111175397,0.1077194047,0.0601615424,9.9480303011,-1.1835316034,0.0277338707
1548685907548897323,0.6009780796,0.0998638740,0.0653578409,9.8667029326,-1.1043198699,0.0557850921
1548685907553876323,0.5927664553,0.0934669178,0.0689251990,9.7626517405,-1.0131191279,0.0513185854
1548685907558855323,0.5879218226,0.0931533328,0.0697734326,9.6956762606,-0.9591252764,0.0791806322
1548685907563834323,0.5857316411,0.0925760693,0.0681822678,9.6765404092,-0.9158879095,0.1579745347
1548685907568813323,0.5825716112,0.0983239689,0.0690109372,9.6825203627,-0.9098721157,0.2176788032
1548685907573793323,0.5815585222,0.1038279436,0.0633775048,9.7160081027,-0.9458817203,0.2371606535
1548685907578771323,0.5819957495,0.1030132168,0.0545145833,9.7100281491,-0.9302670848,0.2360658670
1548685907583750323,0.5753957678,0.1010222609,0.0443720232,9.7602597591,-0.9097766793,0.2529603950
1548685907588729323,0.5741101331,0.0973478616,0.0298884802,9.8033154248,-0.9025136791,0.2523716235
1548685907593708323,0.5711359533,0.0887666078,0.0151551519,9.7805916012,-0.9085500285,0.2679228350
1548685907598687323,0.5657507475,0.0792983613,0.0025915119,9.7518878241,-0.9037785044,0.2214208660
1548685907603667323,0.5615668526,0.0701338337,-0.0118622547,9.7435158891,-0.9170073780,0.2625688948
1548685907608646323,0.5571473720,0.0612492714,-0.0249717898,9.6932842792,-0.9423045455,0.2269187906
1548685907613625323,0.5495937744,0.0557858717,-0.0334923843,9.6777363999,-1.0084166117,0.2095631646
1548685907618604323,0.5379308006,0.0505798738,-0.0395607945,9.6382687064,-1.0457174702,0.1890093153
1548685907623583323,0.5258019645,0.0490933829,-0.0407954615,9.6406606878,-1.0985889168,0.1186522279
1548685907628562323,0.5083381214,0.0470087470,-0.0422512691,9.6047809664,-1.0806076065,0.0827953966
1548685907633541323,0.4918512315,0.0515386544,-0.0399621897,9.5904290778,-1.0241457709,0.0900103677
1548685907638520323,0.4736857031,0.0514398060,-0.0360438666,9.5904290778,-0.9508426489,0.1380559038
1548685907643499323,0.4535744573,0.0547906533,-0.0318426871,9.5521573750,-0.9208473698,0.0740933880
1548685907648478323,0.4349141490,0.0607409615,-0.0273878209,9.5760771893,-0.8475148828,0.1558095696
1548685907653457323,0.4198640201,0.0696102853,-0.0267256330,9.5760771893,-0.7417661166,0.1979852888
1548685907658435323,0.4082198878,0.0767572122,-0.0247496291,9.6310927621,-0.6563785498,0.1737674569
1548685907663415323,0.3967993675,0.0821972707,-0.0268013935,9.6729524370,-0.5553851569,0.2212352899
1548685907668394323,0.3868501060,0.0841753466,-0.0272525018,9.7052441863,-0.4363781522,0.2477275224
1548685907673373323,0.3820015763,0.0835778374,-0.0272094400,9.7566717870,-0.3533983712,0.2118362117
1548685907678352323,0.3797946317,0.0810029096,-0.0325575565,9.7746116477,-0.2416191287,0.1986677162
1548685907683331323,0.3792882962,0.0818846308,-0.0360439950,9.8152753319,-0.1922998966,0.2238913846
1548685907688310323,0.3792594691,0.0813371720,-0.0414128394,9.8643109512,-0.1417686962,0.2161762071
1548685907693289323,0.3811772517,0.0776268546,-0.0467962970,9.8690949140,-0.1165273222,0.1973477186
1548685907698268323,0.3821359736,0.0716001797,-0.0510956030,9.9121505797,-0.1140710841,0.1569019620
1548685907703247323,0.3823448897,0.0690444515,-0.0580758152,9.9121505797,-0.0768186779,0.1557201153
1548685907708226323,0.3825690666,0.0684878440,-0.0615675401,9.9013866633,-0.0912521784,0.1582151426
1548685907713205323,0.3806021244,0.0685056903,-0.0663828507,9.8690949140,-0.0756698444,0.1527898298
1548685907718184323,0.3754864595,0.0682187308,-0.0706333087,9.8607229790,-0.0588564548,0.1470381402
1548685907723164323,0.3696345100,0.0713896103,-0.0751484939,9.8714868954,-0.0492297164,0.1715072562
1548685907728142323,0.3620949643,0.0777083742,-0.0766980890,9.8475670812,-0.0612759866,0.1694918034
1548685907733121323,0.3535766916,0.0860453766,-0.0790461024,9.8977986911,-0.0503991053,0.1875610954
1548685907738100323,0.3412001265,0.0983726210,-0.0759938317,9.9109545890,-0.0599964788,0.1850396201
1548685907743079323,0.3271153954,0.1086890527,-0.0756097386,9.9384623754,-0.0491474943,0.2127970814
1548685907748058323,0.3132809910,0.1181358246,-0.0741532552,9.9623821896,-0.0731519397,0.1995818659
1548685907753037323,0.2984888928,0.1295804456,-0.0697366892,10.0293576696,-0.0971035281,0.2584623574
1548685907758016323,0.2812857685,0.1401380740,-0.0631504349,10.0748053167,-0.0646020904,0.2871420247
1548685907762995323,0.2623890836,0.1524108580,-0.0552082699,10.0724133353,-0.0549915027,0.3434425920
1548685907767974323,0.2415714195,0.1649446333,-0.0437592420,10.1645046202,-0.0104158979,0.3855509517
1548685907772953323,0.2217547804,0.1734246393,-0.0282886745,10.2470279794,0.0629885335,0.4172316439
1548685907777932323,0.2048771458,0.1816012337,-0.0077426345,10.3474911993,0.1508352749,0.4310795817
1548685907782911323,0.1901847113,0.1863320914,0.0119814895,10.4347985214,0.2843301055,0.4286829488
1548685907787891323,0.1769202950,0.1867797782,0.0252530029,10.4431704564,0.4357533893,0.5070741575
1548685907792870323,0.1679917358,0.1895759448,0.0341889590,10.5268898063,0.5728488867,0.4601780922
1548685907797849323,0.1602845267,0.1860392561,0.0423137360,10.5412416948,0.7771538949,0.4587578006
1548685907802828323,0.1620365322,0.1793765076,0.0495524468,10.5567895741,0.9754519187,0.5522790855
1548685907807806323,0.1683545813,0.1744998058,0.0500377327,10.5017740013,1.1003601937,0.6420918558
1548685907812786323,0.1773066585,0.1690915217,0.0443253406,10.5280857970,1.2085446424,0.6897697859
1548685907817764323,0.1952334949,0.1631439007,0.0388030098,10.5161258899,1.2986567493,0.7250787397
1548685907822744323,0.2143584005,0.1554892266,0.0300497799,10.5101459363,1.3166747659,0.7825983622
1548685907827723323,0.2341864484,0.1472858628,0.0167267058,10.5292817877,1.3118914958,0.8069570493
1548685907832701323,0.2537867953,0.1370532043,0.0052865623,10.5328697599,1.2554164459,0.8631930360
1548685907837681323,0.2724214620,0.1247983073,-0.0061435082,10.5508096205,1.1893454908,0.9157189435
1548685907842660323,0.2913179097,0.1105118386,-0.0148895171,10.5675534905,1.1376933538,0.9061255328
1548685907847639323,0.3058878419,0.0930047278,-0.0179569828,10.5436336763,1.0595541047,0.9193669232
1548685907852618323,0.3165911678,0.0763311955,-0.0183063736,10.5185178713,0.9934302926,0.9525506461
1548685907857597323,0.3258691416,0.0555948890,-0.0148813794,10.4503464006,0.9440772907,0.9687324742
1548685907862576323,0.3307936139,0.0394320574,-0.0076630680,10.3881548835,0.8779079628,0.9895262982
1548685907867555323,0.3342965858,0.0209289303,0.0046706224,10.3331393107,0.8381846359,0.9996648225
1548685907872534323,0.3380710643,0.0064265470,0.0237106922,10.2757317565,0.8321057072,0.9852090208
1548685907877513323,0.3430796231,-0.0083792887,0.0464988293,10.2601838772,0.8080528094,1.0041839323
1548685907882492323,0.3456596472,-0.0214658251,0.0693069483,10.2458319887,0.8008250472,1.0829255545
1548685907887471323,0.3499325766,-0.0345406694,0.0912947574,10.2207161837,0.8152145003,1.0797473300
1548685907892450323,0.3546838164,-0.0458807483,0.1127400481,10.2051683044,0.8452376761,1.1033975862
1548685907897429323,0.3623337796,-0.0569097855,0.1322802955,10.1896204252,0.8944879003,1.1551781272
1548685907902408323,0.3741124574,-0.0716673967,0.1515187291,10.1573286759,0.9064651628,1.1638213442
1548685907907387323,0.3887805169,-0.0852418040,0.1675091338,10.0783932888,0.9135784013,1.2305443515
1548685907912366323,0.4014589180,-0.0930223021,0.1768005513,10.0604534281,0.9435986406,1.2647779190
1548685907917345323,0.4192148152,-0.1001911372,0.1836305967,10.0819812610,0.9688605702,1.2562718868
1548685907922324323,0.4359857389,-0.1073495929,0.1877845226,10.0508855024,0.9471919662,1.3211778466
1548685907927303323,0.4512710806,-0.1141969038,0.1865817259,10.0293576696,0.9207283461,1.2863090682
1548685907932282323,0.4694564561,-0.1241868685,0.1824026843,10.0126137996,0.9351280769,1.2712937147
1548685907937261323,0.4842482267,-0.1347680656,0.1782539187,9.9623821896,0.9146376714,1.2520545857
1548685907942240323,0.4999936134,-0.1418768189,0.1724831875,9.9193265240,0.8557019787,1.2772749090
1548685907947220323,0.5140388202,-0.1469762975,0.1669942882,9.8248432576,0.7630558164,1.2633466857
1548685907952199323,0.5249244150,-0.1500684090,0.1609946136,9.7279680098,0.6812219323,1.2435867954
1548685907957177323,0.5331568351,-0.1457055270,0.1603819125,9.7231840470,0.6283416762,1.1803613316
1548685907962157323,0.5362696028,-0.1390364202,0.1557852260,9.7243800377,0.5730653804,1.1815314939
1548685907967136323,0.5383981537,-0.1277544341,0.1503881292,9.6873043256,0.5489860541,1.1668031529
1548685907972114323,0.5429433674,-0.1132893028,0.1446988241,9.6609925299,0.5513571336,1.1261306953
1548685907977094323,0.5477246863,-0.0965153217,0.1387371533,9.6251128085,0.5477080145,1.1828911462
1548685907982072323,0.5522412197,-0.0777068561,0.1295544920,9.5461774214,0.5752499919,1.1991999971
1548685907987052323,0.5589420267,-0.0519859539,0.1233004485,9.5294335514,0.5704226743,1.2498383984
1548685907992030323,0.5654240563,-0.0254259763,0.1216117659,9.6035849757,0.5596984912,1.3039284800
1548685907997010323,0.5745695511,0.0008615843,0.1190944710,9.7100281491,0.6439475023,1.2977667160
1548685908001988323,0.5844367250,0.0199653375,0.1128178151,9.8176673133,0.6693151460,1.2833976342
1548685908006968323,0.5938257694,0.0315801082,0.1049403890,9.8726828861,0.6645759234,1.2943719126
1548685908011947323,0.6044528364,0.0417367964,0.1010803799,9.9384623754,0.7055141551,1.3321506699
1548685908016925323,0.6143711244,0.0501460218,0.0999127351,9.9599902082,0.6911202974,1.3541346127
1548685908021905323,0.6247901564,0.0539388192,0.0998182266,9.9599902082,0.6839101542,1.3576533618
1548685908026884323,0.6359191875,0.0589024926,0.0970317965,10.0138097903,0.7056066550,1.3651202675
1548685908031863323,0.6494912121,0.0609820419,0.0963739847,10.0592574374,0.7128725917,1.3891171996
1548685908036842323,0.6621101854,0.0607394081,0.0978741820,10.0795892795,0.7068890993,1.4087706893
1548685908041821323,0.6754733843,0.0624975771,0.1031249382,10.0640414003,0.6984581784,1.3773326762
1548685908046800323,0.6890984092,0.0607856200,0.1105239339,10.1346048523,0.6588890179,1.4068607481
1548685908051779323,0.7015131543,0.0573401282,0.1176664479,10.1465647595,0.6192479132,1.4196031812
1548685908056758323,0.7114967327,0.0533148704,0.1234883924,10.1405848059,0.5928033804,1.4419651826
1548685908061737323,0.7236440603,0.0496047979,0.1260693647,10.1286248988,0.5435193863,1.4597253500
1548685908066716323,0.7367364077,0.0456353753,0.1240781406,10.1740725459,0.5724157525,1.5001289461
1548685908071696323,0.7500399757,0.0422727136,0.1167150559,10.1525447130,0.5315318461,1.5156727844
1548685908076674323,0.7609027528,0.0386273176,0.1064203943,10.1645046202,0.5003025750,1.5530313724
1548685908081653323,0.7732009696,0.0335685774,0.0920870883,10.1920124066,0.4775042248,1.5374223376
1548685908086633323,0.7835507918,0.0310990217,0.0772319094,10.1525447130,0.4894726778,1.5531971782
1548685908091611323,0.7956007940,0.0266201913,0.0620948987,10.1358008431,0.4269642150,1.5721982472
1548685908096590323,0.8049888333,0.0224123215,0.0480549646,10.0831772517,0.4136810161,1.5752635869
1548685908101570323,0.8131785211,0.0193363743,0.0369779080,10.0365336139,0.3727662765,1.5372239747
1548685908106548323,0.8223506973,0.0188417755,0.0291119079,9.9587942175,0.3318133623,1.5125035573
1548685908111527323,0.8271694171,0.0214820974,0.0245034029,9.8906227468,0.2932755752,1.4911689980
1548685908116506323,0.8334546627,0.0278575771,0.0233692717,9.8714868954,0.2211506517,1.4515901126
1548685908121485323,0.8353898295,0.0350630866,0.0252259417,9.7758076384,0.1753689516,1.4271154786
1548685908126464323,0.8358937362,0.0445409950,0.0321944496,9.7674357034,0.1140724571,1.4190392041
1548685908131444323,0.8313209037,0.0580097404,0.0435000390,9.7781996198,0.0756315746,1.3790441103
1548685908136422323,0.8286966575,0.0723415402,0.0566671672,9.7805916012,0.0708277490,1.3602559273
1548685908141401323,0.8262971982,0.0858284390,0.0663427919,9.7985314619,0.0900768211,1.3518003451
1548685908146380323,0.8187872363,0.0972971615,0.0720377507,9.8571350069,0.1057707423,1.3580312763
1548685908151359323,0.8163483318,0.1039174488,0.0720539702,9.8786628397,0.1274276003,1.3542153700
1548685908156338323,0.8114613620,0.1122759687,0.0686001350,9.9169345425,0.1539117759,1.3618929887
1548685908161317323,0.8077571102,0.1198054232,0.0594985575,9.9133465704,0.1370837038,1.4170443336
1548685908166297323,0.8023726270,0.1255846869,0.0528294038,9.9253064775,0.0926358369,1.3993081855
1548685908171276323,0.7952985256,0.1319244762,0.0477855103,9.9372663847,0.0650116373,1.3815677262
1548685908176255323,0.7894085994,0.1388722981,0.0378981611,9.9360703939,0.0169425481,1.3921470518
1548685908181234323,0.7799117806,0.1434733221,0.0326084407,9.9468343104,-0.0719693365,1.4002292118
1548685908186213323,0.7679598140,0.1552857843,0.0246498538,9.9420503475,-0.1140343778,1.3979606025
1548685908191192323,0.7565066259,0.1676623615,0.0193712058,9.9408543568,-0.0767834398,1.4401701777
1548685908196171323,0.7418793671,0.1832111308,0.0114331824,9.9803220503,-0.0563062486,1.5181710625
1548685908201150323,0.7284501322,0.1984914012,0.0008000820,10.0700213538,-0.0117335803,1.5239707137
1548685908206129323,0.7203825628,0.2074391235,-0.0074588516,10.1226449452,-0.0008537625,1.5185613889
1548685908211108323,0.7103811933,0.2134955427,-0.0156985244,10.2362640630,-0.0283531607,1.5568778616
1548685908216087323,0.7013896258,0.2134757696,-0.0191097153,10.3391192643,-0.0222184384,1.5871263394
1548685908221066323,0.6929258447,0.2088133533,-0.0166154115,10.3953308278,-0.0750238136,1.5863736271
1548685908226045323,0.6844504628,0.2004220558,-0.0176082672,10.4216426235,-0.1050337752,1.6352592708
1548685908231024323,0.6759715567,0.1894448560,-0.0202099172,10.4886181035,-0.0785143616,1.6777146219
1548685908236003323,0.6692209460,0.1709647863,-0.0201360864,10.5221058434,-0.1241374905,1.7124388422
1548685908240982323,0.6573792728,0.1533247156,-0.0194812407,10.4838341406,-0.1530250471,1.6555252185
1548685908245961323,0.6469806978,0.1391548117,-0.0196472294,10.4706782428,-0.1963020568,1.6545433417
1548685908250940323,0.6380507608,0.1284303159,-0.0160701588,10.4013107814,-0.1975889059,1.6847967616
1548685908255919323,0.6262144530,0.1217177233,-0.0103229002,10.3773909671,-0.1531557215,1.6464255202
1548685908260898323,0.6131499387,0.1196184203,-0.0056423850,10.3044355336,-0.1075810449,1.6720266387
1548685908265877323,0.6027351877,0.1230140250,-0.0020633728,10.2314801001,-0.0680148210,1.6507372771
1548685908270856323,0.5950117914,0.1278363889,0.0063234506,10.1872284437,0.0004272136,1.6466337499
1548685908275835323,0.5874898106,0.1393167626,0.0098706946,10.1860324530,0.0124426506,1.7005727968
1548685908280814323,0.5814184849,0.1528214668,0.0134036037,10.2075602859,0.0184775318,1.6744871842
1548685908285793323,0.5726782493,0.1677546745,0.0172273112,10.2649678401,-0.0066874932,1.6572988788
1548685908290772323,0.5671003931,0.1786639175,0.0212948788,10.3594511064,-0.0426222170,1.6841553572
1548685908295751323,0.5637017276,0.1861332494,0.0234666730,10.4670902706,-0.0364816217,1.7084771188
1548685908300730323,0.5620295276,0.1869645916,0.0283132841,10.5567895741,0.0068893560,1.7271723834
1548685908305709323,0.5596249742,0.1808926868,0.0296815630,10.6572527940,0.0166262134,1.7808985543
1548685908310688323,0.5603506859,0.1696771408,0.0251199072,10.7577160139,0.0011275697,1.7349856496
1548685908315667323,0.5635238419,0.1478051998,0.0205451303,10.8007716796,-0.0084330975,1.7461241943
1548685908320647323,0.5630759291,0.1253264161,0.0186874039,10.8330634289,0.0276572611,1.7245733542
1548685908325625323,0.5645709661,0.1014145344,0.0168137364,10.8832950388,0.0084918793,1.6840353199
1548685908330604323,0.5687473951,0.0708834114,0.0149217183,10.9263507045,-0.0022704784,1.6095962362
1548685908335584323,0.5729332561,0.0366030177,0.0133010417,10.8892749924,0.0325330310,1.5807852001
1548685908340563323,0.5758849012,0.0069417391,0.0095397641,10.8234955032,0.0600911592,1.5652625997
1548685908345541323,0.5769076824,-0.0201492880,0.0087466503,10.7481480882,0.0575952783,1.5369828199
1548685908350520323,0.5803579704,-0.0449307887,0.0092727781,10.6524688312,0.0418558414,1.4843652755
1548685908355500323,0.5855231907,-0.0631048024,0.0154166504,10.5819053791,0.0441725956,1.4653974541
1548685908360479323,0.5899602028,-0.0766779983,0.0231741607,10.5041659827,0.0440771592,1.4418388673
1548685908365457323,0.5893045598,-0.0865326303,0.0323158660,10.4611103171,-0.0100517715,1.3920307271
1548685908370437323,0.5881427280,-0.0906147478,0.0398466209,10.4395824842,-0.0136832716,1.3864636104
1548685908375415323,0.5860124034,-0.0932639520,0.0481901861,10.3618430879,-0.0534344952,1.3558813826
1548685908380394323,0.5855988862,-0.0916091037,0.0616163377,10.3235713850,-0.0859271235,1.3657898110
1548685908385374323,0.5776510307,-0.0868052628,0.0732268642,10.3690190321,-0.1219220456,1.3452504100
1548685908390353323,0.5711634995,-0.0817126773,0.0858982410,10.3486871900,-0.1604011027,1.3701557330
1548685908395332323,0.5598415698,-0.0775190020,0.1010290802,10.3761949764,-0.2168467876,1.3100079017
1548685908400311323,0.5446224220,-0.0736128812,0.1129726639,10.4228386142,-0.2936977193,1.3269762832
1548685908405290323,0.5284276425,-0.0705685431,0.1235831136,10.4252305957,-0.3369556417,1.2941303482
1548685908410269323,0.5088227774,-0.0695379713,0.1307349095,10.4168586607,-0.3718149447,1.2590843877
1548685908415247323,0.4877482463,-0.0679239818,0.1354828694,10.4730702242,-0.3717459368,1.2864533379
1548685908420227323,0.4630046164,-0.0683087844,0.1338211985,10.4874221127,-0.3609131031,1.2827380237
1548685908425206323,0.4392174152,-0.0686762949,0.1297348246,10.4491504099,-0.4426750428,1.2762468707
1548685908430185323,0.4149285211,-0.0724821162,0.1213599388,10.4276225771,-0.4859623302,1.2847575219
1548685908435164323,0.3884471976,-0.0722597883,0.1127326690,10.4168586607,-0.4955890687,1.2544269035
1548685908440143323,0.3658282556,-0.0722915393,0.1008499529,10.3606470971,-0.4656158134,1.2751145751
1548685908445122323,0.3441706222,-0.0746123454,0.0865443043,10.3534711529,-0.4175570019,1.2951291866
1548685908450101323,0.3244491384,-0.0723179136,0.0732919244,10.3809789393,-0.3574387059,1.3205294214
1548685908455079323,0.3049557737,-0.0717347194,0.0568171692,10.3618430879,-0.3214114822,1.2996796293
1548685908460059323,0.2910285400,-0.0722675305,0.0378781080,10.3522751622,-0.2036575568,1.3513611006
1548685908465038323,0.2795101296,-0.0687464907,0.0175723170,10.3474911993,-0.1123349500,1.3549198124
1548685908470017323,0.2718676670,-0.0669311915,-0.0041085632,10.3498831807,-0.0306170578,1.3513493641
1548685908474996323,0.2683678695,-0.0633916502,-0.0215315681,10.3989188000,0.0547631678,1.3588651628
1548685908479976323,0.2677804973,-0.0653083919,-0.0405867258,10.3881548835,0.1232463134,1.3074131193
1548685908484954323,0.2667178647,-0.0704013663,-0.0590982584,10.4371905028,0.1425335601,1.2844660418
1548685908489934323,0.2715058711,-0.0752115248,-0.0720234042,10.4383864935,0.1749806725,1.3160935374
1548685908494913323,0.2738813492,-0.0809072195,-0.0830473259,10.4359945121,0.1869946413,1.3255014688
1548685908499892323,0.2770089825,-0.0883499259,-0.0903178118,10.3797829486,0.2385983260,1.3414943956
1548685908504871323,0.2823159984,-0.0957803045,-0.0981444051,10.4156626700,0.2722897082,1.3128614581
1548685908509850323,0.2859187454,-0.1049375715,-0.1078340042,10.3989188000,0.2722691527,1.3060559033
1548685908514829323,0.2907307784,-0.1189774884,-0.1199466750,10.3594511064,0.2878426772,1.3230021205
1548685908519808323,0.3001653343,-0.1309984084,-0.1286113468,10.3319433200,0.2589683348,1.3386243967
1548685908524787323,0.3057191076,-0.1404457947,-0.1364385218,10.3068275150,0.2204834048,1.2756723962
1548685908529765323,0.3110322234,-0.1507591074,-0.1442629020,10.3032395429,0.2252857621,1.2956491832
1548685908534745323,0.3158583875,-0.1651004253,-0.1539591724,10.2613798679,0.2684952322,1.2774519098
1548685908539724323,0.3199089235,-0.1765211683,-0.1711682647,10.2075602859,0.2768409945,1.2863895125
1548685908544703323,0.3244334547,-0.1827505376,-0.1883856025,10.1680925923,0.2924145190,1.3162310352
1548685908549682323,0.3273081293,-0.1916226496,-0.1980690300,10.1310168802,0.2106540476,1.3765447072
1548685908554660323,0.3280023480,-0.1950397094,-0.2053213046,10.1202529638,0.1397410923,1.3204391827
1548685908559639323,0.3284702775,-0.1976104119,-0.2093505400,10.1645046202,0.0917277967,1.2917130611
1548685908564619323,0.3224016970,-0.2045352171,-0.2130504554,10.1764645273,0.0869357171,1.2294193321
1548685908569598323,0.3105419164,-0.2100742465,-0.2110625829,10.1597206573,0.0148137301,1.1663618298
1548685908574577323,0.2986924603,-0.2190757096,-0.2085351259,10.1106850381,-0.0249022555,1.1740742359
1548685908579556323,0.2856186495,-0.2217414047,-0.2057334186,10.0377296046,-0.0346053431,1.1563144013
1548685908584535323,0.2667450987,-0.2189852161,-0.1972470218,10.0185937532,-0.0622677172,1.0909335111
1548685908589514323,0.2456842356,-0.2124935410,-0.1882073946,9.9564022361,-0.0623440662,1.0484061716
1548685908594494323,0.2265567886,-0.2100150407,-0.1818663602,9.9564022361,-0.0383102558,1.0683291213
1548685908599472323,0.2054823138,-0.2006331495,-0.1741712679,9.9253064775,-0.0263315251,1.0148241085
1548685908604451323,0.1841542704,-0.1923923704,-0.1688893384,9.9324824218,0.0409719538,0.9549217178
1548685908609430323,0.1706054926,-0.1884527116,-0.1617930298,9.9157385518,0.1154562108,0.9715430807
1548685908614409323,0.1596776058,-0.1781270496,-0.1606312461,9.8595269883,0.1538412998,1.0156746067
1548685908619388323,0.1538519079,-0.1689398748,-0.1581710058,9.8762708583,0.1334331164,1.0529652094
1548685908624368323,0.1482812359,-0.1571744899,-0.1524933160,9.8989946818,0.1298559416,1.0444502644
1548685908629346323,0.1424675116,-0.1465604121,-0.1473495387,9.9994579017,0.0698947485,1.0466130739
1548685908634325323,0.1371242924,-0.1439858731,-0.1478415780,10.0867652238,0.0375562867,1.0137791237
1548685908639303323,0.1288659143,-0.1445834639,-0.1504533261,10.1609166480,0.0388490089,1.0233187069
1548685908644283323,0.1230671913,-0.1523968621,-0.1495908146,10.2350680723,0.0040910152,1.0340398289
1548685908649262323,0.1197169064,-0.1642504709,-0.1460618709,10.3163954408,-0.0102294299,1.0399686932
1548685908654241323,0.1134496327,-0.1784113291,-0.1446532999,10.3008475615,-0.0078451362,1.0436969235
1548685908659220323,0.1059640930,-0.1983258095,-0.1464512202,10.3486871900,-0.0378286692,0.9961604645
1548685908664200323,0.0994467185,-0.2188097793,-0.1487941503,10.2972595893,-0.0727408292,0.9792859353
1548685908669179323,0.0902652687,-0.2387330389,-0.1503086895,10.2577918958,-0.0920163299,0.9364537575
1548685908674158323,0.0818121738,-0.2583663231,-0.1515613785,10.2219121744,-0.1569516658,0.8572430556
1548685908679137323,0.0719140152,-0.2762892311,-0.1503864304,10.1202529638,-0.2135559218,0.7824437889
1548685908684116323,0.0627242629,-0.2901626981,-0.1511002240,10.0963331495,-0.2400224784,0.7640198244
1548685908689094323,0.0511103925,-0.2994441266,-0.1499169984,10.0532774838,-0.2400753355,0.7306100339
1548685908694073323,0.0399711725,-0.3052610290,-0.1492776192,9.9336784125,-0.2510373754,0.6888680310
1548685908699053323,0.0317206338,-0.3067293257,-0.1508148460,9.8858387840,-0.2462893433,0.6895189368
1548685908704031323,0.0263852540,-0.3050254926,-0.1502323640,9.8296272205,-0.2235262312,0.6809009437
1548685908709010323,0.0217422740,-0.2966673830,-0.1534198659,9.7793956105,-0.1911422536,0.6475806593
1548685908713990323,0.0178006517,-0.2894316372,-0.1617136980,9.8200592948,-0.2019075478,0.5977924930
1548685908718969323,0.0150808086,-0.2830628230,-0.1686751993,9.8391951462,-0.2139009610,0.6385652347
1548685908723948323,0.0186666229,-0.2792570813,-0.1764955069,9.8451750997,-0.2199020724,0.6560697647
1548685908728927323,0.0179213241,-0.2757905039,-0.1783710201,9.9001906726,-0.2474734149,0.5791273567
1548685908733906323,0.0149805801,-0.2774993206,-0.1845188007,9.9599902082,-0.2329797160,0.5536901790
1548685908738885323,0.0147170033,-0.2852478789,-0.1912223031,9.9863020039,-0.2197288187,0.4876792881
1548685908743864323,0.0156739857,-0.2932867820,-0.1965939173,9.9779300689,-0.2509830501,0.4960075221
1548685908748842323,0.0188433121,-0.2984682895,-0.1955437789,9.8619189697,-0.2331001126,0.5350979526
1548685908753822323,0.0166588576,-0.2996265090,-0.1963291080,9.8332151926,-0.1946812539,0.5225840757
1548685908758801323,0.0188355632,-0.3004746922,-0.1976899445,9.8021194341,-0.1959211189,0.5112852681
1548685908763780323,0.0183448612,-0.2998958284,-0.1984915182,9.8296272205,-0.1682484671,0.4558050830
1548685908768759323,0.0198164476,-0.3042212348,-0.1971586626,9.7793956105,-0.1526881568,0.4377290163
1548685908773738323,0.0232268607,-0.3030708924,-0.1939678092,9.7267720191,-0.1106935916,0.4255402843
1548685908778717323,0.0261543659,-0.3007738376,-0.1899681860,9.6657764928,-0.0723143756,0.3853313882
1548685908783696323,0.0307783912,-0.2987562971,-0.1862517225,9.5736852078,-0.0940578604,0.3608016851
1548685908788675323,0.0380698804,-0.2903979018,-0.1801473894,9.4325583037,-0.1531139498,0.3568790776
1548685908793654323,0.0429371611,-0.2745703594,-0.1710743928,9.3990705637,-0.2360717071,0.3479784179
1548685908798633323,0.0441911219,-0.2573432568,-0.1571381801,9.3368790466,-0.3370900602,0.3523689652
1548685908803612323,0.0444594089,-0.2369403727,-0.1448066639,9.2962153624,-0.4260650796,0.3588075722
1548685908808591323,0.0437990550,-0.2211849522,-0.1268253317,9.2651196038,-0.5450706161,0.3229206323
1548685908813570323,0.0392512992,-0.2025618789,-0.1090805815,9.2400037988,-0.6316231671,0.3596264917
1548685908818549323,0.0327244468,-0.1795936454,-0.0966913902,9.3117632416,-0.6675857877,0.3680359274
1548685908823529323,0.0259272173,-0.1583256342,-0.0899364914,9.3978745730,-0.7323713619,0.3375711961
1548685908828507323,0.0181761346,-0.1425437514,-0.0823634708,9.4457142015,-0.7755734908,0.3310686418
1548685908833487323,0.0135781349,-0.1313522253,-0.0764253979,9.5091017093,-0.8103446986,0.3688994062
1548685908838465323,0.0046113729,-0.1175863450,-0.0701824951,9.5294335514,-0.8728076456,0.3569152556
1548685908843445323,0.0000121984,-0.1072567864,-0.0647806869,9.5557453471,-0.9004142261,0.3471852585
1548685908848424323,-0.0058075353,-0.0966368829,-0.0607107670,9.5593333193,-0.9232419413,0.3424529971
1548685908853402323,-0.0116271334,-0.0903326423,-0.0582483136,9.5808611521,-0.9376357991,0.3620923389
1548685908858382323,-0.0172011941,-0.0854688225,-0.0557868845,9.5796651614,-0.9604693873,0.3761820992
1548685908863361323,-0.0235241230,-0.0782857735,-0.0562739409,9.5940170500,-0.9388213389,0.3724640135
1548685908868339323,-0.0281649454,-0.0716559680,-0.0597285792,9.5760771893,-0.9112044806,0.4125596994
1548685908873318323,-0.0311279312,-0.0635613522,-0.0661523487,9.5653132728,-0.8487297876,0.3880721070
1548685908878298323,-0.0311714883,-0.0543126606,-0.0704548602,9.5401974679,-0.8643825977,0.4212428964
1548685908883277323,-0.0334087964,-0.0467885806,-0.0774215086,9.5509613843,-0.8559575497,0.4468846208
1548685908888256323,-0.0310292182,-0.0395416561,-0.0828176380,9.5437854400,-0.8691849550,0.5501482725
1548685908893235323,-0.0267191270,-0.0299756462,-0.0890379786,9.5342175143,-0.8800119158,0.6124133978
1548685908898214323,-0.0287335798,-0.0287609343,-0.1019081048,9.5354135050,-0.8728003044,0.6159121483
1548685908903192323,-0.0292906677,-0.0286931193,-0.1147901317,9.5581373286,-0.9220417191,0.6543009248
1548685908908172323,-0.0286344258,-0.0283332368,-0.1274145702,9.5784691707,-0.9688826893,0.7478198158
1548685908913151323,-0.0252858464,-0.0291368666,-0.1360345990,9.5808611521,-1.0205524453,0.7653849578
1548685908918129323,-0.0233989580,-0.0345434473,-0.1475914088,9.6322887528,-1.0913890514,0.8092494972
1548685908923109323,-0.0270717279,-0.0440189349,-0.1574853220,9.6227208271,-1.1430734900,0.8058762647
1548685908928088323,-0.0268693971,-0.0569255544,-0.1695583898,9.6131529014,-1.1611105939,0.7849099024
1548685908933067323,-0.0281020878,-0.0721593618,-0.1789322578,9.6609925299,-1.1442281965,0.7795642516
1548685908938046323,-0.0285997591,-0.0888358672,-0.1875060191,9.6155448828,-1.1587042763,0.7426738617
1548685908943025323,-0.0293398727,-0.1069519730,-0.1966134716,9.5928210592,-1.1983879604,0.7875412080
1548685908948004323,-0.0324857937,-0.1199183865,-0.2003343110,9.5294335514,-1.2441300177,0.7555925781
1548685908952983323,-0.0334348234,-0.1354787641,-0.2024615512,9.4708300065,-1.2766476062,0.7329537511
1548685908957962323,-0.0402112001,-0.1467413037,-0.2042725036,9.4361462758,-1.3103375202,0.7310905722
1548685908962941323,-0.0457755575,-0.1542580803,-0.2047546661,9.3739547587,-1.3260358461,0.6909118369
1548685908967921323,-0.0498804828,-0.1617729494,-0.2044442214,9.3619948516,-1.3212437665,0.6875567381
1548685908972900323,-0.0571424897,-0.1713107336,-0.2057153110,9.3069792788,-1.3104960913,0.6765809199
1548685908977878323,-0.0675533096,-0.1782762149,-0.2053499038,9.2519637060,-1.3225805362,0.6667832531
1548685908982858323,-0.0757773255,-0.1823595419,-0.2031266379,9.2280438917,-1.3718792127,0.6425036370
1548685908987836323,-0.0869000196,-0.1881924647,-0.1995341509,9.1993401146,-1.4307972864,0.6370485061
1548685908992815323,-0.0984933203,-0.1923151961,-0.1927171576,9.1837922353,-1.4836907568,0.6548585077
1548685908997794323,-0.1117720145,-0.1964569015,-0.1837375328,9.1718323282,-1.5510001087,0.7042754076
1548685909002773323,-0.1260055448,-0.2034944639,-0.1731363849,9.1861842168,-1.5870332054,0.6794706941
1548685909007752323,-0.1469999428,-0.2085753045,-0.1565709036,9.1802042632,-1.5846371656,0.6326595755
1548685909012732323,-0.1660489058,-0.2176809712,-0.1405563003,9.1407365696,-1.5450298306,0.6437381315
1548685909017710323,-0.1831626568,-0.2210196826,-0.1232208492,9.1060528390,-1.4789794311,0.6266094871
1548685909022690323,-0.1992862721,-0.2260999904,-0.1029394862,9.1275806718,-1.4513141205,0.6274812430
1548685909027668323,-0.2120355308,-0.2299950022,-0.0859104142,9.1156207647,-1.3780256810,0.6006625817
1548685909032648323,-0.2238209394,-0.2310028954,-0.0688920791,9.1036608575,-1.3335778141,0.6137095278
1548685909037627323,-0.2360947004,-0.2297079899,-0.0516027881,9.0390773590,-1.3420689334,0.6005244631
1548685909042605323,-0.2500670486,-0.2292823746,-0.0348348453,8.9984136748,-1.3505306876,0.5682565218
1548685909047585323,-0.2613575757,-0.2300100769,-0.0159417430,9.0295094333,-1.3336688457,0.5924466316
1548685909052564323,-0.2738524185,-0.2310385852,0.0043045572,9.0020016469,-1.3361059965,0.5459302067
1548685909057543323,-0.2854023318,-0.2294493351,0.0210503052,8.9780818326,-1.3169083132,0.5603189545
1548685909062522323,-0.2964449268,-0.2313320778,0.0404790905,8.9792778234,-1.3145034639,0.5286499217
1548685909067501323,-0.3082388751,-0.2283038632,0.0574943273,8.9362221577,-1.3073461778,0.5163396924
1548685909072480323,-0.3183465827,-0.2235312832,0.0731509977,8.8776186127,-1.2857876927,0.4878255057
1548685909077458323,-0.3282397827,-0.2175797248,0.0842407580,8.8632667242,-1.2593681202,0.5513185991
1548685909082437323,-0.3386409562,-0.2064293259,0.0931830819,8.8273870028,-1.2738324540,0.5869804125
1548685909087417323,-0.3466138774,-0.1975733568,0.1018374023,8.8465228542,-1.2209345789,0.5585707962
1548685909092396323,-0.3553256247,-0.1904357224,0.1078147999,8.8847945570,-1.2208875949,0.5627382881
1548685909097375323,-0.3628291592,-0.1827133579,0.1132441714,8.8847945570,-1.1884419507,0.5545238702
1548685909102354323,-0.3671946795,-0.1781282318,0.1148897739,8.8788146035,-1.1836425299,0.6003238751
1548685909107333323,-0.3708344769,-0.1755521957,0.1154566752,8.8991464456,-1.2136598327,0.5895037106
1548685909112312323,-0.3754361477,-0.1718373651,0.1179104656,8.9350261670,-1.1979938083,0.6089397126
1548685909117291323,-0.3773827122,-0.1701130608,0.1173892568,8.8883825292,-1.1824290933,0.6025377406
1548685909122270323,-0.3783474999,-0.1718484621,0.1176675728,8.8680506870,-1.1572185526,0.5981192303
1548685909127249323,-0.3754526736,-0.1718213447,0.1149573578,8.8644627149,-1.1283823848,0.5723701392
1548685909132229323,-0.3745015539,-0.1749636290,0.1103873744,8.8931664920,-1.0802795257,0.4746655977
1548685909137207323,-0.3694444808,-0.1746198699,0.1041677229,8.8536987985,-1.0274535950,0.4986360718
1548685909142186323,-0.3639246856,-0.1736770422,0.0941848659,8.8106431328,-0.9974641889,0.5414181151
1548685909147166323,-0.3598698123,-0.1701414813,0.0834074098,8.7962912442,-0.9590277112,0.4982287839
1548685909152144323,-0.3526782804,-0.1648509092,0.0704532086,8.7580195414,-0.9266290511,0.4952252781
1548685909157123323,-0.3476595118,-0.1598667839,0.0591291935,8.7604115228,-0.9170125904,0.4389197838
1548685909162102323,-0.3385280800,-0.1545678428,0.0461579446,8.7113759036,-0.9170727887,0.4431051264
1548685909167081323,-0.3320843319,-0.1432189654,0.0318631670,8.6766921729,-0.8918798670,0.4506052624
1548685909172061323,-0.3280582293,-0.1324629615,0.0186639991,8.6001487673,-0.9208144077,0.4469668711
1548685909177040323,-0.3245440425,-0.1153534872,0.0030480451,8.5917768323,-0.9160179233,0.4857656799
1548685909182018323,-0.3215006995,-0.0985475062,-0.0101472464,8.5834048973,-0.8955994622,0.4401548496
1548685909186997323,-0.3172324822,-0.0854884781,-0.0225449227,8.6025407487,-0.9003827322,0.4117600144
1548685909191977323,-0.3146544932,-0.0715806310,-0.0333175601,8.6276565537,-0.8438724443,0.3809233560
1548685909196955323,-0.3127744843,-0.0588553111,-0.0392505611,8.6814761358,-0.8233776341,0.4270764861
1548685909201935323,-0.3094302540,-0.0455573225,-0.0433175401,8.7065919407,-0.8269518723,0.3763261163
1548685909206914323,-0.3065545180,-0.0308388922,-0.0438913271,8.7257277922,-0.7355999005,0.3139099315
1548685909211893323,-0.3075528548,-0.0167181559,-0.0436251830,8.7759594021,-0.6838655413,0.2944551376
1548685909216872323,-0.3032106494,-0.0060324695,-0.0436717288,8.7915072814,-0.6489974288,0.2707882527
1548685909221851323,-0.3034845736,0.0095328723,-0.0434130842,8.8273870028,-0.6561635244,0.2468549871
1548685909226830323,-0.3015623069,0.0256696519,-0.0404894174,8.8525028078,-0.6393090238,0.2394745008
1548685909231809323,-0.3001435177,0.0377944468,-0.0423907486,8.9170863063,-0.6380280477,0.2315600041
1548685909236788323,-0.2997019983,0.0533745781,-0.0442862117,8.9481820648,-0.6019391574,0.2276099749
1548685909241767323,-0.2997470014,0.0703926279,-0.0459100551,9.0127655633,-0.6006581813,0.2618982961
1548685909246746323,-0.2990821974,0.0851293147,-0.0515654860,9.1120327925,-0.5584771481,0.2124700123
1548685909251725323,-0.3001281463,0.0941175692,-0.0617654680,9.2148879939,-0.5571491879,0.1958277020
1548685909256704323,-0.3023716557,0.0981952359,-0.0711456399,9.3129592324,-0.5810626017,0.2636627081
1548685909261682323,-0.3053271861,0.0985146679,-0.0791742201,9.3954825916,-0.5701460776,0.2531565952
1548685909266662323,-0.3082804122,0.1019965890,-0.0855944486,9.4170104244,-0.5773297923,0.2575541829
1548685909271641323,-0.3124179150,0.0985411301,-0.0895825318,9.4803979322,-0.5616299981,0.2637199004
1548685909276620323,-0.3165591340,0.0890475298,-0.0965190753,9.5533533657,-0.5363049337,0.2580297218
1548685909281600323,-0.3235893055,0.0838366494,-0.0980640799,9.5892330871,-0.5290507430,0.3091199928
1548685909286578323,-0.3288930114,0.0719877793,-0.0969342676,9.5796651614,-0.5110371312,0.3221411067
1548685909291557323,-0.3307862591,0.0598506974,-0.0931494240,9.5605293100,-0.4966403369,0.3177090645
1548685909296536323,-0.3350922612,0.0540208507,-0.0847842457,9.4708300065,-0.4582963590,0.3142327664
1548685909301515323,-0.3386530551,0.0476015351,-0.0734719098,9.3978745730,-0.4667977560,0.3574322498
1548685909306494323,-0.3400066671,0.0457708319,-0.0560076135,9.3631908423,-0.4800589311,0.3919051513
1548685909311473323,-0.3423156236,0.0476619126,-0.0345107051,9.3165472045,-0.4572840729,0.4112919426
1548685909316452323,-0.3417343965,0.0539001428,-0.0149219383,9.2675115853,-0.4429239850,0.4354026983
1548685909321431323,-0.3408991374,0.0561003985,0.0052047244,9.2866474367,-0.4753461371,0.4562515666
1548685909326411323,-0.3432148941,0.0640398153,0.0277708427,9.2579436595,-0.4621627794,0.4882915752
1548685909331389323,-0.3414317912,0.0717320251,0.0460055263,9.2938233809,-0.4128494203,0.4948236494
1548685909336369323,-0.3413694832,0.0777133668,0.0594240963,9.3225271581,-0.3851753002,0.4920806833
1548685909341348323,-0.3389135673,0.0843108844,0.0674516270,9.2890394181,-0.3719978155,0.6074192410
1548685909346326323,-0.3330577548,0.0920689394,0.0767907607,9.3117632416,-0.3407259651,0.6340643806
1548685909351306323,-0.3303785997,0.0992615668,0.0815941457,9.3261151302,-0.3226829882,0.6866176426
1548685909356285323,-0.3260208624,0.1033150483,0.0818211544,9.3500349445,-0.3418806716,0.7132594123
1548685909361264323,-0.3226470253,0.1019115293,0.0774969978,9.4445182108,-0.3537815849,0.7143191209
1548685909366243323,-0.3216899414,0.1002019737,0.0745366940,9.5055137372,-0.3825472767,0.7615593564
1548685909371222323,-0.3233925272,0.0927194117,0.0707988639,9.4803979322,-0.4354524930,0.7455030710
1548685909376201323,-0.3236297731,0.0789035842,0.0665161881,9.5031217558,-0.4762820741,0.7709943866
1548685909381180323,-0.3250948981,0.0688376224,0.0608989684,9.4720259972,-0.4907405349,0.8265200947
1548685909386159323,-0.3287508597,0.0599212449,0.0542261848,9.4433222201,-0.5112045119,0.8175382082
1548685909391138323,-0.3287721862,0.0501600480,0.0467167075,9.3871106566,-0.5136769007,0.8229942878
1548685909396117323,-0.3317140146,0.0447121554,0.0389610178,9.3596028702,-0.4956853127,0.8175031453
1548685909401096323,-0.3346435870,0.0412662962,0.0341568868,9.3141552231,-0.5065563210,0.7935071371
1548685909406075323,-0.3344308190,0.0404330465,0.0285176685,9.2196719567,-0.4790334308,0.7725143168
1548685909411054323,-0.3344609564,0.0433392830,0.0242200258,9.1419325604,-0.5103728208,0.8357139732
1548685909416033323,-0.3354695384,0.0488388885,0.0193919865,9.1407365696,-0.5344080995,0.8626993469
1548685909421012323,-0.3401143031,0.0566233241,0.0156679985,9.0905049597,-0.5020241219,0.8657203780
1548685909425991323,-0.3418621744,0.0655836814,0.0100383034,9.0809370340,-0.4972291058,0.8435758643
1548685909430970323,-0.3448002754,0.0753803861,0.0087140287,9.0677811361,-0.5092621619,0.8601704885
1548685909435949323,-0.3511290669,0.0874600540,0.0090286031,9.0606051919,-0.5224895671,0.8590993960
1548685909440928323,-0.3594010454,0.0989591353,0.0085552748,9.0438613219,-0.5177033606,0.8604987129
1548685909445907323,-0.3625952907,0.1130835642,0.0064244183,9.0199415076,-0.4612532710,0.8666718110
1548685909450886323,-0.3636240473,0.1295354066,0.0021248980,9.1108368018,-0.3830317997,0.8935479454
1548685909455865323,-0.3672839289,0.1401865712,0.0021486740,9.1491085046,-0.3277070515,0.9481101934
1548685909460844323,-0.3675712839,0.1528879120,-0.0010805049,9.2113000217,-0.2675461762,0.8898042931
1548685909465823323,-0.3639909595,0.1592882944,-0.0089028042,9.3165472045,-0.2037273723,0.8731133631
1548685909470802323,-0.3591722396,0.1619286163,-0.0135113092,9.3655828237,-0.1327674330,0.8900112610
1548685909475781323,-0.3543423481,0.1628318957,-0.0167761646,9.4110304708,-0.0846440185,0.9104808217
1548685909480760323,-0.3449085267,0.1646213879,-0.0203506366,9.4337542944,-0.0149180713,0.9207039002
1548685909485739323,-0.3340069255,0.1589244409,-0.0244690690,9.5366094957,0.0633180825,0.9005249803
1548685909490718323,-0.3213962207,0.1540865894,-0.0261869029,9.5772731800,0.0874018135,0.8659677901
1548685909495697323,-0.3063708299,0.1484059700,-0.0300730973,9.5808611521,0.1270620056,0.9022500332
1548685909500676323,-0.2905776955,0.1421140357,-0.0269851689,9.5689012450,0.1510811336,0.9305421207
1548685909505656323,-0.2791431908,0.1314817830,-0.0243924923,9.5581373286,0.2291778034,0.9470810426
1548685909510635323,-0.2592291811,0.1223319806,-0.0226808989,9.4983377929,0.2543398918,0.9197545359
1548685909515613323,-0.2436620536,0.1174615341,-0.0161019096,9.4732219879,0.2302752480,0.9118969635
1548685909520593323,-0.2317243085,0.1088275814,-0.0094880788,9.4648500529,0.2266598987,0.9249073168
1548685909525572323,-0.2190378308,0.1021900622,0.0016817039,9.4397342480,0.1965868023,0.8971221757
1548685909530551323,-0.2065945863,0.1001554532,0.0144608627,9.4289703315,0.2650699479,0.9113189600
1548685909535530323,-0.1968084699,0.0975240115,0.0288746908,9.3703667866,0.2649980036,0.9039117251
1548685909540509323,-0.1887250639,0.1009321268,0.0446411098,9.2627276224,0.2504455746,0.8831090205
1548685909545488323,-0.1816177528,0.1086575460,0.0609496618,9.2483757338,0.2744617661,0.8938492075
1548685909550467323,-0.1716086121,0.1230204414,0.0783014095,9.2483757338,0.2468228840,0.8352412653
1548685909555446323,-0.1632794655,0.1376468307,0.0988894249,9.2986073438,0.2204473591,0.8369078965
1548685909560425323,-0.1580881523,0.1496562413,0.1211179206,9.3679748052,0.2481713997,0.7972692979
1548685909565404323,-0.1536293281,0.1590780677,0.1414755506,9.4134224523,0.2506305744,0.7345172249
1548685909570383323,-0.1491878770,0.1667905232,0.1580760075,9.4134224523,0.2650508607,0.7790609485
1548685909575362323,-0.1450006951,0.1765272684,0.1733347245,9.3823266937,0.2373738040,0.7841811226
1548685909580341323,-0.1420203139,0.1885549356,0.1904815763,9.3213311673,0.2276853990,0.7674305541
1548685909585320323,-0.1375897521,0.1985795640,0.2060064053,9.2794714924,0.2360458439,0.8735060637
1548685909590299323,-0.1363589365,0.2161168059,0.2159154315,9.2962153624,0.2000156837,0.8392903393
1548685909595278323,-0.1370781193,0.2299153414,0.2226228103,9.3536229166,0.1880692545,0.8771967700
1548685909600257323,-0.1412191693,0.2437254464,0.2245276643,9.4002665544,0.1592859437,0.9129096418
1548685909605236323,-0.1472990459,0.2520598025,0.2245745204,9.5330215236,0.1498353955,0.8946902165
1548685909610215323,-0.1557946024,0.2546207419,0.2241101836,9.6239168178,0.1126945763,0.9063560066
1548685909615194323,-0.1672032054,0.2537198017,0.2217948237,9.7518878241,0.0743975825,0.8553847717
1548685909620173323,-0.1795641141,0.2458927224,0.2200302277,9.8391951462,0.0336472870,0.8178637751
1548685909625151323,-0.1926192074,0.2308376926,0.2214991296,9.9300904404,-0.0419476289,0.7650628920
1548685909630131323,-0.2088227862,0.2174915418,0.2243367278,9.9575982268,-0.0899814801,0.7658725310
1548685909635110323,-0.2257287166,0.1986515702,0.2296011030,9.9839100225,-0.1632523005,0.7268467232
1548685909640089323,-0.2465009255,0.1797817531,0.2373157527,9.9815180411,-0.2485752643,0.6553908635
1548685909645068323,-0.2667797554,0.1611935832,0.2466367053,9.9253064775,-0.2955102025,0.6210001200
1548685909650047323,-0.2935961684,0.1437186906,0.2581620234,9.8954067097,-0.3279925530,0.6190714194
1548685909655026323,-0.3167821146,0.1337463802,0.2712604092,9.9265024682,-0.3123324016,0.5905083148
1548685909660005323,-0.3421796933,0.1269577282,0.2803485739,9.9193265240,-0.2618702091,0.5378396796
1548685909664984323,-0.3659111718,0.1222206681,0.2845879145,9.9157385518,-0.1789579677,0.4944922236
1548685909669964323,-0.3874731290,0.1157792830,0.2858562965,9.9372663847,-0.0851996782,0.4496273235
1548685909674942323,-0.4092995893,0.1119475129,0.2841717097,9.9468343104,-0.0202966439,0.4166558533
1548685909679922323,-0.4275122103,0.1093049977,0.2786957724,9.9934779482,0.0879127651,0.3984077970
1548685909684901323,-0.4452795726,0.1084292889,0.2667711010,9.9731461061,0.2368974299,0.3646500565
1548685909689880323,-0.4548378522,0.1087743626,0.2488668759,9.9982619110,0.4328038186,0.3455006821
1548685909694859323,-0.4591089176,0.1103393164,0.2228609539,10.0114178089,0.6407124302,0.3827816865
1548685909699837323,-0.4578095711,0.1179766670,0.1978752296,10.0245737067,0.7885365154,0.4458686989
1548685909704816323,-0.4519219734,0.1282416421,0.1704308461,10.0760013074,0.8835332017,0.4568663287
1548685909709795323,-0.4409654758,0.1353864862,0.1375748598,10.1238409359,0.9556933632,0.4175097983
1548685909714774323,-0.4280494572,0.1396436575,0.1071202181,10.2171282116,1.0158924131,0.4935945657
1548685909719753323,-0.4153533457,0.1424393824,0.0801588503,10.2625758587,1.0832428760,0.5164038003
1548685909724732323,-0.4007178538,0.1426546611,0.0521085693,10.3104154872,1.1794368480,0.5204162295
1548685909729712323,-0.3872947090,0.1399876007,0.0229972988,10.3295513386,1.2599736052,0.5928173733
1548685909734691323,-0.3701855666,0.1370013338,0.0024451443,10.2553999144,1.3632279587,0.6430383246
1548685909739670323,-0.3523588682,0.1337401067,-0.0199924322,10.2171282116,1.4328790251,0.7068464010
1548685909744649323,-0.3354137633,0.1298136371,-0.0268501101,10.1896204252,1.4244334216,0.7447371516
1548685909749628323,-0.3213351772,0.1238186938,-0.0267005941,10.1932083973,1.4208327548,0.7540675691
1548685909754607323,-0.3091698214,0.1200911445,-0.0208980496,10.1716805645,1.3823522295,0.7801614961
1548685909759586323,-0.3008432838,0.1125670022,-0.0091523169,10.1489567409,1.3282482591,0.7992419267
1548685909764565323,-0.2934419080,0.1044198530,0.0103878483,10.1848364623,1.2249469215,0.7378196805
1548685909769544323,-0.2918274624,0.0956404257,0.0356173506,10.2147362301,1.0735706218,0.6659405646
1548685909774523323,-0.2930798179,0.0842173944,0.0675860249,10.1944043880,0.9161242028,0.6639134622
1548685909779502323,-0.3028114413,0.0733255974,0.1012396265,10.1322128709,0.7826602055,0.6858968314
1548685909784481323,-0.3154797197,0.0644611468,0.1308902852,10.1178609824,0.6901124161,0.6685316766
1548685909789460323,-0.3337360543,0.0564462542,0.1589785060,10.0903531960,0.5927417138,0.6513470914
1548685909794439323,-0.3575744921,0.0415071922,0.1836310139,10.0771972981,0.5290359652,0.6116845332
1548685909799418323,-0.3828760217,0.0282959831,0.2074895867,10.0975291402,0.4100935636,0.5575120379
1548685909804398323,-0.4103797065,0.0130806075,0.2270734577,10.1142730102,0.3332059255,0.4623471576
1548685909809376323,-0.4403030134,-0.0067535547,0.2458767863,10.1346048523,0.2407007154,0.3976171832
1548685909814355323,-0.4702604565,-0.0302947520,0.2571659901,10.1118810288,0.1589578630,0.3311267601
1548685909819335323,-0.5067805032,-0.0501090982,0.2671675311,10.0640414003,0.1360670129,0.3048218372
1548685909824313323,-0.5411440754,-0.0675872924,0.2733896222,10.0281616789,0.0675266055,0.2408519656
1548685909829292323,-0.5745542687,-0.0836067275,0.2771859036,10.0126137996,0.0350618741,0.1695618944
1548685909834271323,-0.6019168240,-0.0955580762,0.2798519553,9.9564022361,0.0890689398,0.1187330769
1548685909839250323,-0.6280852978,-0.1066232938,0.2795535804,9.8977986911,0.1526865933,0.0644175013
1548685909844229323,-0.6526179896,-0.1069764658,0.2722520273,9.8391951462,0.2211110089,0.0030668909
1548685909849208323,-0.6687014044,-0.1000638425,0.2608433924,9.7566717870,0.3363719898,-0.0579696603
1548685909854187323,-0.6806783463,-0.0870763607,0.2488569550,9.6861083349,0.4131935566,-0.0640612685
1548685909859167323,-0.6846418828,-0.0709006062,0.2400193336,9.6143488921,0.4611730824,-0.1451564145
1548685909864146323,-0.6873681874,-0.0501404238,0.2373421964,9.5569413379,0.4526907727,-0.1689900042
1548685909869125323,-0.6886415327,-0.0241934216,0.2362590760,9.5545493564,0.4526878362,-0.1584066928
1548685909874103323,-0.6858002833,0.0075328636,0.2359406960,9.5318255329,0.4839038930,-0.1651387369
1548685909879082323,-0.6832293657,0.0361203723,0.2294522015,9.4959458115,0.5872052306,-0.1916390280
1548685909884062323,-0.6750995918,0.0656128424,0.2199609229,9.5425894493,0.6545571618,-0.1735352988
1548685909889040323,-0.6650381302,0.0982863654,0.2101816980,9.6143488921,0.7087213305,-0.1874226680
1548685909894020323,-0.6505971075,0.1289504698,0.2022449153,9.6657764928,0.7400284189,-0.2162669343
1548685909898999323,-0.6334888692,0.1547352882,0.1924092038,9.6765404092,0.7676805153,-0.1953193389
1548685909903978323,-0.6161518566,0.1770820214,0.1788155162,9.7064401770,0.8362135815,-0.1629200636
1548685909908957323,-0.5951967347,0.1985999557,0.1614320271,9.7578677777,0.8891510994,-0.1390163505
1548685909913936323,-0.5720564127,0.2166721534,0.1432266221,9.8320192019,0.9457215856,-0.1072172230
1548685909918915323,-0.5477152994,0.2324592547,0.1220592249,9.8607229790,0.9601771099,-0.0923722944
1548685909923894323,-0.5177719082,0.2442182885,0.1037990217,9.9324824218,1.0059294450,-0.1332204194
1548685909928873323,-0.4887958914,0.2505043014,0.0839407611,9.9360703939,0.9855051108,-0.1133349863
1548685909933852323,-0.4610195928,0.2536080306,0.0651694472,9.9300904404,0.9566571970,-0.0382188468
1548685909938831323,-0.4320147489,0.2604415023,0.0506800310,9.9133465704,0.9061656394,-0.1165217984
1548685909943810323,-0.4063974553,0.2652393617,0.0367589261,9.8487630719,0.8484052087,-0.0722515131
1548685909948789323,-0.3827068679,0.2708791684,0.0255388486,9.8344111833,0.7991182781,-0.0345296304
1548685909953768323,-0.3580368873,0.2819803449,0.0180645431,9.7710236755,0.7581829830,-0.0324827776
1548685909958747323,-0.3355453518,0.2919174762,0.0108787660,9.7494958427,0.7377278155,0.0885628705
1548685909963726323,-0.3120695432,0.3050096299,0.0074405314,9.7459078705,0.6716304319,0.1402099394
1548685909968705323,-0.2883202624,0.3169219846,0.0091018738,9.7554757962,0.5767086265,0.1623775486
1548685909973684323,-0.2705942092,0.3224409724,0.0153852529,9.8523510440,0.4710787887,0.2150098915
1548685909978663323,-0.2576915749,0.3218717686,0.0241320780,9.9312864311,0.3558134030,0.2585108456
1548685909983642323,-0.2435700757,0.3175614374,0.0326026609,9.9839100225,0.2357089536,0.2871318007
1548685909988621323,-0.2349982379,0.3065831894,0.0435435253,10.0305536603,0.1095887104,0.3427987241
1548685909993600323,-0.2332211215,0.2944297585,0.0532026201,10.0472975303,-0.0021479529,0.3836296318
1548685909998580323,-0.2346091180,0.2776718795,0.0588659931,10.0855692331,-0.0621854951,0.4241538361
1548685910003558323,-0.2343188599,0.2586382783,0.0602207903,10.0879612145,-0.0934265122,0.4710212555
1548685910008537323,-0.2371945055,0.2410427395,0.0597229331,10.0508855024,-0.1403379585,0.4832616768
1548685910013517323,-0.2425101399,0.2263284121,0.0576333862,9.9970659203,-0.2016902465,0.5098016475
1548685910018495323,-0.2473422113,0.2087405248,0.0541994688,9.9372663847,-0.2173856359,0.5774419511
1548685910023474323,-0.2529415518,0.1957913217,0.0453991164,9.8260392483,-0.2247323265,0.5578586097
1548685910028453323,-0.2585535213,0.1831420632,0.0344508279,9.7937474991,-0.2932683292,0.5395595472
1548685910033432323,-0.2648827642,0.1713428954,0.0256559831,9.7494958427,-0.3750376102,0.5812142318
1548685910038412323,-0.2687888155,0.1653098623,0.0187146529,9.6717564463,-0.4195955959,0.6209712656
1548685910043391323,-0.2758651760,0.1670486081,0.0115265856,9.6777363999,-0.4928913767,0.5986348233
1548685910048370323,-0.2866247666,0.1670899630,-0.0044875129,9.7064401770,-0.5277051638,0.6357660870
1548685910053348323,-0.2983762324,0.1668606859,-0.0245198316,9.7674357034,-0.5228235209,0.6501732862
1548685910058327323,-0.3082230076,0.1684001226,-0.0502082771,9.8966027004,-0.5370852360,0.6343486040
1548685910063307323,-0.3216837690,0.1638595112,-0.0739808602,10.0173977624,-0.6006265404,0.6538196863
1548685910068286323,-0.3319806034,0.1538549244,-0.0977769409,10.1405848059,-0.6533496935,0.6345694738
1548685910073265323,-0.3463497746,0.1414825143,-0.1134810944,10.2087562766,-0.7361826494,0.6207661201
1548685910078243323,-0.3655665380,0.1273608778,-0.1294097650,10.2446359980,-0.8046349617,0.6578081854
1548685910083223323,-0.3845148106,0.1080364419,-0.1426519396,10.2912796358,-0.8538470114,0.6665633808
1548685910088202323,-0.4017398485,0.0892697006,-0.1510771153,10.3427072364,-0.8537838766,0.6482778254
1548685910093181323,-0.4218469030,0.0644216801,-0.1567874284,10.3510791714,-0.8309414788,0.6458132494
1548685910098160323,-0.4397840070,0.0433352583,-0.1633251902,10.3020435522,-0.7360681257,0.6441127622
1548685910103139323,-0.4557547787,0.0225192836,-0.1650478628,10.2876916636,-0.6243285260,0.6372459621
1548685910108118323,-0.4693159363,-0.0002853505,-0.1702803324,10.2087562766,-0.5294918792,0.5972671445
1548685910113097323,-0.4782649859,-0.0147314455,-0.1715327431,10.1226449452,-0.3938065640,0.6054399980
1548685910118076323,-0.4835588306,-0.0248636627,-0.1679880795,10.0401215860,-0.2977726314,0.5526144773
1548685910123055323,-0.4835502457,-0.0303383248,-0.1685208033,9.9623821896,-0.2221615647,0.5653778056
1548685910128034323,-0.4813762172,-0.0320470190,-0.1706863689,9.8810548211,-0.1561684270,0.5348173894
1548685910133013323,-0.4775094643,-0.0279898042,-0.1715289557,9.7746116477,-0.1070297899,0.4928806517
1548685910137992323,-0.4709648777,-0.0224927225,-0.1699799105,9.7184000841,-0.0458125810,0.5135603169
1548685910142970323,-0.4625163914,-0.0091844167,-0.1719439249,9.6334847435,0.0225795330,0.5275956140
1548685910147950323,-0.4538531604,0.0073165525,-0.1776710055,9.5497653936,0.0885697342,0.5392706226
1548685910152929323,-0.4434764091,0.0275493564,-0.1791204504,9.5581373286,0.1414543951,0.5532105551
1548685910157907323,-0.4289599975,0.0495093152,-0.1768489485,9.4947498208,0.1473850304,0.5212486838
1548685910162887323,-0.4136769718,0.0685574375,-0.1686754108,9.4947498208,0.1594019356,0.5177287029
1548685910167866323,-0.4029991413,0.0887344879,-0.1596568770,9.5354135050,0.1786789046,0.5406154689
1548685910172845323,-0.3910886875,0.1071709881,-0.1476945623,9.5724892171,0.1522872288,0.5436337384
1548685910177824323,-0.3743200347,0.1244694114,-0.1347001243,9.5760771893,0.1751237536,0.5623357852
1548685910182803323,-0.3567992266,0.1400208230,-0.1179522503,9.6035849757,0.2039980959,0.6346360463
1548685910187782323,-0.3441044129,0.1549528793,-0.0971343493,9.6442486599,0.1920311112,0.6141557003
1548685910192761323,-0.3304419536,0.1667266311,-0.0779333238,9.7219880563,0.1176217351,0.6154596700
1548685910197741323,-0.3184585960,0.1790507136,-0.0552277877,9.7447118798,0.0779938446,0.6726027910
1548685910202719323,-0.3084227406,0.1942508177,-0.0327758813,9.7734156569,-0.0385348983,0.6675521766
1548685910207699323,-0.3032505851,0.2039771834,-0.0148410446,9.8116873598,-0.1021775120,0.7045604033
1548685910212678323,-0.3012367764,0.2136957752,0.0020476371,9.8571350069,-0.1573994826,0.7379517522
1548685910217657323,-0.2999566315,0.2199648153,0.0165291883,9.8415871276,-0.2114946435,0.7756911701
1548685910222636323,-0.3037744056,0.2253542887,0.0297138319,9.8320192019,-0.2451537241,0.8391344468
1548685910227615323,-0.3081010456,0.2356557655,0.0404827961,9.8631149604,-0.3052000758,0.9348545951
1548685910232594323,-0.3141354677,0.2508509074,0.0512629147,9.8918187376,-0.2931479325,1.0212104700
1548685910237573323,-0.3199689597,0.2594702338,0.0521128116,9.9492262918,-0.2317912397,1.0192398994
1548685910242552323,-0.3255764902,0.2681066267,0.0500074697,10.0233777160,-0.1692123008,1.0780003986
1548685910247531323,-0.3284987769,0.2718462568,0.0492247712,10.0508855024,-0.1102956953,1.1409145572
1548685910252510323,-0.3292398509,0.2747333346,0.0478866293,10.0652373910,-0.0501935501,1.1934570413
1548685910257488323,-0.3294745442,0.2753001369,0.0494991037,10.0951371588,-0.0910143216,1.2622256546
1548685910262468323,-0.3279900918,0.2726884705,0.0537837393,10.1226449452,-0.0933839329,1.3544630306
1548685910267447323,-0.3267187350,0.2717734777,0.0639753936,10.1621126387,-0.0765118132,1.4254310363
1548685910272426323,-0.3225080009,0.2682530951,0.0784388978,10.2207161837,-0.0884567742,1.4398751536
1548685910277405323,-0.3170490553,0.2641278592,0.0990668698,10.2745357658,-0.0943991555,1.4262477330
1548685910282384323,-0.3047410775,0.2539326044,0.1279622172,10.3068275150,-0.0607121780,1.4832416422
1548685910287363323,-0.2892372394,0.2451472679,0.1651511502,10.2864956729,-0.0258881130,1.5210234863
1548685910292342323,-0.2737445277,0.2366604195,0.2004606116,10.2530079330,0.0293485400,1.5707024383
1548685910297321323,-0.2546521530,0.2311027815,0.2300981440,10.1633086295,0.1013398526,1.6961705726
1548685910302300323,-0.2356006131,0.2342157918,0.2557020720,10.1202529638,0.0940768524,1.7647527729
1548685910307279323,-0.2178109866,0.2437009802,0.2748686415,10.1310168802,0.0159801826,1.8279302849
1548685910312258323,-0.2015102745,0.2543636499,0.2884093603,10.1501527316,-0.0609045189,1.8652027539
1548685910317237323,-0.1893566892,0.2618678925,0.2963509886,10.1573286759,-0.1354005220,1.8358165131
1548685910322216323,-0.1806505110,0.2694084635,0.2949261981,10.1537407038,-0.2435570739,1.8734067540
1548685910327195323,-0.1765944066,0.2815738936,0.2876321394,10.1513487223,-0.3396952524,1.9684203363
1548685910332174323,-0.1781194566,0.2948698931,0.2801177431,10.1226449452,-0.4743198292,1.9688461082
1548685910337153323,-0.1828568365,0.3145398965,0.2643037858,10.1059010752,-0.6221483192,1.9515277255
1548685910342132323,-0.1905175421,0.3327718999,0.2455633988,10.1130770195,-0.7182747516,1.9573160426
1548685910347111323,-0.1991504005,0.3541665771,0.2276344942,10.0867652238,-0.7639712931,1.9682371244
1548685910352090323,-0.2104523496,0.3827439747,0.2121396767,10.0520814931,-0.8144848744,1.9710674587
1548685910357069323,-0.2234517110,0.4113140496,0.1966597759,10.0688253631,-0.8493133441,1.9579528353
1548685910362048323,-0.2310913274,0.4372935651,0.1846250222,10.0305536603,-0.8181163745,2.0252876673
1548685910367027323,-0.2336115738,0.4603917253,0.1763062323,10.0568654560,-0.7688147615,1.9956088537
1548685910372007323,-0.2366137453,0.4820463263,0.1679928108,10.0915491867,-0.7339231570,2.0396745425
1548685910376985323,-0.2391274287,0.4970824658,0.1578009671,10.1489567409,-0.6220954621,2.0752046544
1548685910381964323,-0.2346000172,0.5043723025,0.1462109791,10.1860324530,-0.5066876560,2.0957710944
1548685910386943323,-0.2273846396,0.5061873333,0.1362125414,10.2613798679,-0.4417038678,2.1580315758
1548685910391922323,-0.2191714789,0.5019378229,0.1288948709,10.2888876544,-0.3875940244,2.2162577642
1548685910396901323,-0.2109569626,0.4927960628,0.1199701765,10.3462952086,-0.4007421441,2.2225123894
1548685910401881323,-0.2019795938,0.4761428792,0.1145348798,10.4324065399,-0.4571158846,2.1615656895
1548685910406859323,-0.1961435825,0.4542868146,0.1091312693,10.4192506421,-0.4859726080,2.2004383343
1548685910411839323,-0.1944283109,0.4309729554,0.1034965272,10.3355312922,-0.5713954128,2.1980845374
1548685910416818323,-0.1939316670,0.4134139082,0.0989418713,10.2458319887,-0.6628340116,2.2133983048
1548685910421797323,-0.1973133205,0.3958366668,0.0946897750,10.2231081651,-0.7013160051,2.3157080675
1548685910426776323,-0.2041062684,0.3860287019,0.0904615369,10.1704845737,-0.7674735871,2.3387160651
1548685910431755323,-0.2138422986,0.3819944414,0.0824959433,10.1537407038,-0.8419989551,2.3553756125
1548685910436733323,-0.2245399762,0.3719062040,0.0737381280,10.1740725459,-0.9188821884,2.3222937482
1548685910441712323,-0.2381161914,0.3597611441,0.0698397918,10.2051683044,-1.0293995421,2.3758240121
1548685910446691323,-0.2533905646,0.3522127176,0.0675636173,10.1573286759,-1.1087698468,2.4796589175
1548685910451670323,-0.2708491551,0.3455197562,0.0653059577,10.1059010752,-1.1725225794,2.4709978823
1548685910456650323,-0.2951320849,0.3431466636,0.0585407514,10.1059010752,-1.1893462467,2.5214111149
1548685910461628323,-0.3160719252,0.3425645819,0.0431535246,10.1250369266,-1.1076077991,2.5504368323
1548685910466608323,-0.3370527469,0.3457623553,0.0218572052,10.0843732424,-1.0091190966,2.6213039280
1548685910471587323,-0.3566280295,0.3524667056,-0.0069715575,10.0712173445,-0.8997814096,2.6390397508
1548685910476566323,-0.3735947787,0.3572256781,-0.0470977143,10.1035090938,-0.7747659523,2.6608412416
1548685910481545323,-0.3835728122,0.3669480167,-0.0931956470,10.0628454095,-0.6462349867,2.7551466487
1548685910486524323,-0.3889956464,0.3793300207,-0.1476584546,10.0520814931,-0.4900284328,2.7529087465
1548685910491503323,-0.3913039845,0.3911869038,-0.2091285951,10.0760013074,-0.3782418490,2.7396587338
1548685910496482323,-0.3878024842,0.4013522409,-0.2730647301,10.1298208895,-0.2700236305,2.7728940788
1548685910501461323,-0.3823663930,0.4083663705,-0.3391631931,10.1166649916,-0.1690977772,2.7648414462
1548685910506440323,-0.3720543570,0.4136498160,-0.4012759824,10.0987251309,-0.0501524390,2.7533325068
1548685910511419323,-0.3578203649,0.4160321116,-0.4569775095,10.1059010752,0.0183527304,2.7649401385
1548685910516398323,-0.3440288186,0.4131924492,-0.5070330399,10.1417807966,0.0388255168,2.7585842978
1548685910521377323,-0.3270362498,0.4100314881,-0.5485251923,10.1214489545,0.0400022471,2.7846517593
1548685910526356323,-0.3123950873,0.4018979091,-0.5787167701,10.0616494188,0.0819880028,2.8135913654
1548685910531335323,-0.2991967856,0.3923078478,-0.6072836696,10.0269656882,0.1600553076,2.8703145729
1548685910536314323,-0.2859602247,0.3795159747,-0.6302103833,10.0532774838,0.2718448279,2.8417920469
1548685910541293323,-0.2695249456,0.3632403137,-0.6461820707,10.1106850381,0.3332015208,2.8058247619
1548685910546272323,-0.2520474227,0.3411447129,-0.6514192819,10.1190569731,0.3656574427,2.8443882398
1548685910551251323,-0.2364607416,0.3164038669,-0.6488519875,10.0783932888,0.3595990695,2.8648732049
1548685910556230323,-0.2234911448,0.2884380505,-0.6384733519,10.0891572052,0.3187548060,2.8119834216
1548685910561209323,-0.2123939888,0.2555075339,-0.6178722611,10.0676293724,0.2538370891,2.7853306008
1548685910566188323,-0.2046746684,0.2173672647,-0.5961634959,10.0233777160,0.1912948565,2.7742268360
1548685910571167323,-0.2003297951,0.1809188079,-0.5701307955,9.9540102546,0.1755877211,2.7564196308
1548685910576146323,-0.2015497875,0.1435712154,-0.5421691685,9.8762708583,0.1863074995,2.7598211840
1548685910581125323,-0.2047228623,0.1145713937,-0.5133915188,9.7985314619,0.2162543262,2.7315656966
1548685910586104323,-0.2076642936,0.0864462368,-0.4862274500,9.6645805020,0.2353169304,2.7017346415
1548685910591083323,-0.2130385295,0.0620584330,-0.4590449486,9.5605293100,0.1967350957,2.6738553824
1548685910596063323,-0.2201219032,0.0474565441,-0.4302442689,9.4935538301,0.1389717284,2.7017460677
1548685910601041323,-0.2279403866,0.0371744616,-0.4011720516,9.4205983965,0.0944196157,2.6429646459
1548685910606020323,-0.2391675437,0.0277542650,-0.3742183796,9.4134224523,0.0619651620,2.6055571650
1548685910611000323,-0.2528214959,0.0220655959,-0.3461724175,9.3906986287,0.0511220505,2.6164204063
1548685910615979323,-0.2633309954,0.0186997864,-0.3186928572,9.4170104244,0.0835999962,2.6441886282
1548685910620957323,-0.2752903932,0.0179121462,-0.2893232523,9.4600660901,0.0920646869,2.5650554155
1548685910625937323,-0.2854807963,0.0052666504,-0.2516370958,9.4684380251,0.0800580595,2.5473598633
1548685910630916323,-0.2951726581,-0.0088284149,-0.2120748442,9.5126896815,0.0224312396,2.5033962988
1548685910635894323,-0.3053310939,-0.0252450275,-0.1700903810,9.5091017093,-0.0280441672,2.5011135416
1548685910640873323,-0.3130813163,-0.0373194956,-0.1294728689,9.5150816629,-0.0580790890,2.4986951219
1548685910645853323,-0.3179023050,-0.0542911367,-0.0872663799,9.4959458115,-0.0605059621,2.4743382824
1548685910650832323,-0.3232254046,-0.0709605563,-0.0480089582,9.4672420344,0.0067534692,2.5051921332
1548685910655810323,-0.3256685998,-0.0812589470,-0.0117350847,9.3883066473,0.0379005182,2.4734357399
1548685910660789323,-0.3235300729,-0.0915127027,0.0199344066,9.3679748052,0.0559009158,2.4373669639
1548685910665769323,-0.3175288820,-0.1014454067,0.0486164733,9.3572108887,0.0967451794,2.4128849144
1548685910670748323,-0.3132560430,-0.1116431425,0.0716759268,9.3775427309,0.1015769018,2.4466032386
1548685910675727323,-0.3036839710,-0.1206326493,0.0887813981,9.3727587680,0.1111845530,2.4021185700
1548685910680706323,-0.2919252870,-0.1301922407,0.1064050621,9.3703667866,0.0667190671,2.3705104572
1548685910685685323,-0.2799421890,-0.1382947549,0.1213408451,9.3308990931,-0.0006240546,2.3230013950
1548685910690664323,-0.2665181052,-0.1426373524,0.1351871079,9.2388078081,-0.0800486846,2.3465507934
1548685910695643323,-0.2506968441,-0.1452164259,0.1447153036,9.2316318639,-0.0728473510,2.3806434808
1548685910700622323,-0.2339294787,-0.1443157735,0.1512792119,9.2268479010,-0.0812650577,2.3912615546
1548685910705601323,-0.2203162354,-0.1440023948,0.1573343367,9.2220639381,-0.0812709307,2.4007051723
1548685910710580323,-0.2047718240,-0.1430967782,0.1620296494,9.2388078081,-0.1257129246,2.3805592095
1548685910715559323,-0.1904624305,-0.1407359920,0.1632444738,9.2041240774,-0.1065284555,2.4079899937
1548685910720538323,-0.1737076035,-0.1424125036,0.1665888018,9.2531596967,-0.1317037582,2.3323007875
1548685910725517323,-0.1567262954,-0.1414831335,0.1680497565,9.2938233809,-0.1869316017,2.3657573502
1548685910730496323,-0.1409600114,-0.1442966136,0.1676449926,9.2758835202,-0.2530466043,2.3601573361
1548685910735475323,-0.1268894002,-0.1451051883,0.1683274537,9.3093712602,-0.2806443754,2.3257112079
1548685910740454323,-0.1133127782,-0.1459071168,0.1674033907,9.3440549909,-0.3178542023,2.3369709593
1548685910745433323,-0.1016817378,-0.1475750124,0.1651547175,9.3488389538,-0.3334703061,2.3228421428
1548685910750412323,-0.0900530922,-0.1495282887,0.1623693369,9.3524269259,-0.2745830657,2.3216058429
1548685910755392323,-0.0769987216,-0.1497207690,0.1550059488,9.3560148980,-0.1688298948,2.3238744348
1548685910760370323,-0.0593521574,-0.1484402548,0.1454532510,9.3607988609,-0.0174110157,2.2815676027
1548685910765350323,-0.0407575687,-0.1474220035,0.1318652855,9.3871106566,0.0511176458,2.2729852710
1548685910770328323,-0.0180422855,-0.1435074034,0.1190442735,9.4205983965,0.1412855461,2.3240869010
1548685910775307323,0.0061158134,-0.1366977668,0.1051344053,9.5306295422,0.2507744630,2.3166974595
1548685910780286323,0.0336556339,-0.1336009093,0.0874390797,9.5820571428,0.3121238146,2.2843285932
1548685910785265323,0.0626467195,-0.1287680147,0.0697296405,9.6394646971,0.3939092463,2.2682851817
1548685910790244323,0.0899837688,-0.1274369174,0.0584809181,9.7172040934,0.4757196384,2.2707214196
1548685910795223323,0.1192598258,-0.1263842882,0.0469469050,9.7650437220,0.5118290842,2.1926882110
1548685910800202323,0.1441766993,-0.1216157823,0.0378645513,9.7889635362,0.5142618303,2.2263582407
1548685910805181323,0.1649974357,-0.1171781127,0.0333825392,9.8021194341,0.5154796716,2.2355569989
1548685910810161323,0.1831534868,-0.1118914392,0.0297286969,9.8643109512,0.5083458775,2.1151364170
1548685910815139323,0.1988910000,-0.1074844764,0.0269022211,9.8906227468,0.5648576337,2.1382092780
1548685910820119323,0.2136723217,-0.1010811210,0.0273042922,9.9587942175,0.6598748755,2.0622284229
1548685910825098323,0.2267632232,-0.0972811855,0.0279917362,9.9970659203,0.7572587920,2.0405803607
1548685910830076323,0.2371798153,-0.0923352144,0.0278963426,10.0532774838,0.7873700629,2.0280833955
1548685910835056323,0.2461223248,-0.0896785650,0.0235200756,10.0748053167,0.8042201588,2.0148903170
1548685910840035323,0.2475667784,-0.0911006478,0.0210922172,10.1130770195,0.7958553092,2.0120261615
1548685910845013323,0.2483001599,-0.0882262265,0.0232313260,10.0879612145,0.8270684296,2.0651140496
1548685910849993323,0.2449047703,-0.0893911330,0.0227251160,10.0760013074,0.8510875575,2.0418249153
1548685910854972323,0.2393544538,-0.0943322021,0.0257309983,10.0556694653,0.8426507636,2.0526549338
1548685910859951323,0.2331200510,-0.1027708841,0.0351890735,9.9468343104,0.7800292454,2.1256648901
1548685910864930323,0.2208694352,-0.1017861180,0.0565055509,9.8009234434,0.6368489463,2.1300351557
1548685910869908323,0.2052764866,-0.0979898630,0.0883197584,9.6514246042,0.4960676234,2.1321091147
1548685910874888323,0.1884697450,-0.0893065889,0.1217516445,9.5210616165,0.3901588179,2.1362578894
1548685910879868323,0.1685029283,-0.0734368611,0.1565480221,9.4134224523,0.2590424080,2.0885221436
1548685910884845323,0.1477890845,-0.0469063281,0.1918795329,9.2639236131,0.2035811124,2.0577498250
1548685910889825323,0.1246197651,-0.0123009332,0.2248099775,9.1646563839,0.1409713403,2.0286392105
1548685910894804323,0.1006599860,0.0286918397,0.2488826227,9.1347566161,0.0940687035,2.0654001215
